%time,field.header.seq,field.header.stamp,field.header.frame_id,field.orientation.x,field.orientation.y,field.orientation.z,field.orientation.w,field.orientation_covariance0,field.orientation_covariance1,field.orientation_covariance2,field.orientation_covariance3,field.orientation_covariance4,field.orientation_covariance5,field.orientation_covariance6,field.orientation_covariance7,field.orientation_covariance8,field.angular_velocity.x,field.angular_velocity.y,field.angular_velocity.z,field.angular_velocity_covariance0,field.angular_velocity_covariance1,field.angular_velocity_covariance2,field.angular_velocity_covariance3,field.angular_velocity_covariance4,field.angular_velocity_covariance5,field.angular_velocity_covariance6,field.angular_velocity_covariance7,field.angular_velocity_covariance8,field.linear_acceleration.x,field.linear_acceleration.y,field.linear_acceleration.z,field.linear_acceleration_covariance0,field.linear_acceleration_covariance1,field.linear_acceleration_covariance2,field.linear_acceleration_covariance3,field.linear_acceleration_covariance4,field.linear_acceleration_covariance5,field.linear_acceleration_covariance6,field.linear_acceleration_covariance7,field.linear_acceleration_covariance8
1728111965223360114,22270,1728111965222962865,/map,0.018659319908503127,-0.0030621568055242206,0.0038189236362954617,0.9998139170858299,0.00022689280275926284,0.0,0.0,0.0,0.00019198621771937625,0.0,0.0,0.0,0.00010471975511965978,-0.0010297442586766543,-0.004206243497306334,0.004101523742186674,0.0005585053606381855,0.0,0.0,0.0,0.0004886921905584122,0.0,0.0,0.0,0.00010471975511965978,-0.392266,-0.2745862,9.77723005,0.0064,0.0,0.0,0.0,0.0063,0.0,0.0,0.0,0.0064
1728111965233461566,22271,1728111965233220963,/map,0.018650621607352442,-0.003062027374542589,0.0038276219374461505,0.9998140465168115,0.00022689280275926284,0.0,0.0,0.0,0.00019198621771937625,0.0,0.0,0.0,0.00010471975511965978,-0.0027052603405912107,0.0032114058236695662,0.0017976891295541594,0.0005585053606381855,0.0,0.0,0.0,0.0004886921905584122,0.0,0.0,0.0,0.00010471975511965978,-0.4118793,-0.32361945,9.7674234,0.0064,0.0,0.0,0.0,0.0063,0.0,0.0,0.0,0.0064
1728111965244093947,22272,1728111965243573154,/map,0.018633171557493264,-0.0030620941786815422,0.0038275684944037015,0.9998143718792856,0.00022689280275926284,0.0,0.0,0.0,0.00019198621771937625,0.0,0.0,0.0,0.00010471975511965978,0.007487462491055674,0.0016406094968746698,0.000767944870877505,0.0005585053606381855,0.0,0.0,0.0,0.0004886921905584122,0.0,0.0,0.0,0.00010471975511965978,-0.392266,-0.2745862,9.77723005,0.0064,0.0,0.0,0.0,0.0063,0.0,0.0,0.0,0.0064
1728111965254266910,22273,1728111965253794972,/map,0.018633177141759976,-0.0030709818140149427,0.0038190058670066395,0.9998143772593439,0.00022689280275926284,0.0,0.0,0.0,0.00019198621771937625,0.0,0.0,0.0,0.00010471975511965978,0.0069638637154573755,0.001832595714594046,0.0032114058236695662,0.0005585053606381855,0.0,0.0,0.0,0.0004886921905584122,0.0,0.0,0.0,0.00010471975511965978,-0.37265269999999995,-0.26477955,9.845876599999999,0.0064,0.0,0.0,0.0,0.0063,0.0,0.0,0.0,0.0064
1728111965264489937,22274,1728111965264107929,/map,0.01861570028546846,-0.003071210920521948,0.0038102272383031045,0.9998147356059301,0.00022689280275926284,0.0,0.0,0.0,0.00019198621771937625,0.0,0.0,0.0,0.00010471975511965978,0.00013962634015954637,0.010262536001726658,-0.0005410520681182421,0.0005585053606381855,0.0,0.0,0.0,0.0004886921905584122,0.0,0.0,0.0,0.00010471975511965978,-0.45110589999999995,-0.16671305,9.8654899,0.0064,0.0,0.0,0.0,0.0063,0.0,0.0,0.0,0.0064
1728111965274606253,22275,1728111965274211248,/map,0.018606836110434725,-0.003063168639000026,0.0037751381388130027,0.9998150583882408,0.00022689280275926284,0.0,0.0,0.0,0.00019198621771937625,0.0,0.0,0.0,0.00010471975511965978,-0.007138396640656807,0.004799655442984407,-0.0030543261909900766,0.0005585053606381855,0.0,0.0,0.0,0.0004886921905584122,0.0,0.0,0.0,0.00010471975511965978,-0.4118793,-0.17651969999999997,9.826263299999999,0.0064,0.0,0.0,0.0,0.0063,0.0,0.0,0.0,0.0064
1728111965284972524,22276,1728111965284623355,/map,0.018597977402299154,-0.003064013075944679,0.0037314862351172803,0.999815384494003,0.00022689280275926284,0.0,0.0,0.0,0.00019198621771937625,0.0,0.0,0.0,0.00010471975511965978,0.001308996938995747,-0.0018675022996339325,-0.009704030641088473,0.0005585053606381855,0.0,0.0,0.0,0.0004886921905584122,0.0,0.0,0.0,0.00010471975511965978,-0.40207265,-0.17651969999999997,9.7870367,0.0064,0.0,0.0,0.0,0.0063,0.0,0.0,0.0,0.0064
1728111965295327266,22277,1728111965294950598,/map,0.018624076780379775,-0.0030732905241617034,0.00369682864988663,0.9998149989409871,0.00022689280275926284,0.0,0.0,0.0,0.00019198621771937625,0.0,0.0,0.0,0.00010471975511965978,0.007539822368615503,-0.0006283185307179586,-0.0032288591161895096,0.0005585053606381855,0.0,0.0,0.0,0.0004886921905584122,0.0,0.0,0.0,0.00010471975511965978,-0.38245935,-0.1372931,9.836069949999999,0.0064,0.0,0.0,0.0,0.0063,0.0,0.0,0.0,0.0064
1728111965305512888,22278,1728111965305171723,/map,0.0186414195540028,-0.0030738767120313017,0.0036619821701839666,0.9998148021736607,0.00022689280275926284,0.0,0.0,0.0,0.00019198621771937625,0.0,0.0,0.0,0.00010471975511965978,0.0014660765716752368,0.0038222710618675817,-0.01551597705022959,0.0005585053606381855,0.0,0.0,0.0,0.0004886921905584122,0.0,0.0,0.0,0.00010471975511965978,-0.32361945,-0.08825984999999999,9.81645665,0.0064,0.0,0.0,0.0,0.0063,0.0,0.0,0.0,0.0064
1728111965315671242,22279,1728111965315362656,/map,0.018658838675838754,-0.003065087766851599,0.0036618731869835393,0.9998145046262397,0.00022689280275926284,0.0,0.0,0.0,0.00019198621771937625,0.0,0.0,0.0,0.00010471975511965978,0.002076941809873252,0.004380776422505767,0.004921828490624009,0.0005585053606381855,0.0,0.0,0.0,0.0004886921905584122,0.0,0.0,0.0,0.00010471975511965978,-0.32361945,0.0980665,9.81645665,0.0064,0.0,0.0,0.0,0.0063,0.0,0.0,0.0,0.0064
1728111965326180176,22280,1728111965325737931,/map,0.018667532765926,-0.0030563307809835755,0.003661737226449581,0.9998143696422225,0.00022689280275926284,0.0,0.0,0.0,0.00019198621771937625,0.0,0.0,0.0,0.00010471975511965978,0.00010471975511965978,-0.0003141592653589793,-0.0051836278784231585,0.0005585053606381855,0.0,0.0,0.0,0.0004886921905584122,0.0,0.0,0.0,0.00010471975511965978,-0.30400615,0.12748644999999997,9.757616749999999,0.0064,0.0,0.0,0.0,0.0063,0.0,0.0,0.0,0.0064
1728111965336495319,22281,1728111965336120016,/map,0.01871127757982496,-0.003082182785677526,0.0036710848651535645,0.999813438285623,0.00022689280275926284,0.0,0.0,0.0,0.00019198621771937625,0.0,0.0,0.0,0.00010471975511965978,0.002234021442552742,0.0012217304763960308,-0.0011519173063162576,0.0005585053606381855,0.0,0.0,0.0,0.0004886921905584122,0.0,0.0,0.0,0.00010471975511965978,-0.34323275000000003,0.04903325,9.826263299999999,0.0064,0.0,0.0,0.0,0.0063,0.0,0.0,0.0,0.0064
1728111965346876579,22282,1728111965346367823,/map,0.018728839531927017,-0.0030903534128281568,0.003697476943117638,0.9998129869879798,0.00022689280275926284,0.0,0.0,0.0,0.00019198621771937625,0.0,0.0,0.0,0.00010471975511965978,0.008604473212332044,0.0023911010752322315,0.00783652834145454,0.0005585053606381855,0.0,0.0,0.0,0.0004886921905584122,0.0,0.0,0.0,0.00010471975511965978,-0.3334261,0.08825984999999999,9.836069949999999,0.0064,0.0,0.0,0.0,0.0063,0.0,0.0,0.0,0.0064
1728111965356836060,22283,1728111965356454459,/map,0.018781423586496628,-0.003124404251645901,0.0037331935476626237,0.9998117620292695,0.00022689280275926284,0.0,0.0,0.0,0.00019198621771937625,0.0,0.0,0.0,0.00010471975511965978,0.002827433388230814,0.002949606435870417,0.0024434609527920616,0.0005585053606381855,0.0,0.0,0.0,0.0004886921905584122,0.0,0.0,0.0,0.00010471975511965978,-0.32361945,0.06864655,9.738003449999999,0.0064,0.0,0.0,0.0,0.0063,0.0,0.0,0.0,0.0064
1728111965366558525,22284,1728111965366221121,/map,0.01877281213323296,-0.0031326703685146595,0.0037595049127243946,0.9998117993021406,0.00022689280275926284,0.0,0.0,0.0,0.00019198621771937625,0.0,0.0,0.0,0.00010471975511965978,-0.002478367537831948,0.0022689280275926286,0.002775073510670984,0.0005585053606381855,0.0,0.0,0.0,0.0004886921905584122,0.0,0.0,0.0,0.00010471975511965978,-0.32361945,0.04903325,9.69877685,0.0064,0.0,0.0,0.0,0.0063,0.0,0.0,0.0,0.0064
1728111965376271674,22285,1728111965375915203,/map,0.018781683114079118,-0.0031495958705155176,0.003786034640416925,0.9998114794134723,0.00022689280275926284,0.0,0.0,0.0,0.00019198621771937625,0.0,0.0,0.0,0.00010471975511965978,0.001832595714594046,-0.004118977034706617,-0.002722713633111154,0.0005585053606381855,0.0,0.0,0.0,0.0004886921905584122,0.0,0.0,0.0,0.00010471975511965978,-0.38245935,-0.0,9.7674234,0.0064,0.0,0.0,0.0,0.0063,0.0,0.0,0.0,0.0064
1728111965385978637,22286,1728111965385595781,/map,0.01878173335024546,-0.003140379161804303,0.0038120459513269153,0.9998114086250194,0.00022689280275926284,0.0,0.0,0.0,0.00019198621771937625,0.0,0.0,0.0,0.00010471975511965978,-5.235987755982989e-05,0.0015882496193148398,0.008779006137531478,0.0005585053606381855,0.0,0.0,0.0,0.0004886921905584122,0.0,0.0,0.0,0.00010471975511965978,-0.3334261,-0.00980665,9.81645665,0.0064,0.0,0.0,0.0,0.0063,0.0,0.0,0.0,0.0064
1728111965395707711,22287,1728111965395410900,/map,0.018799302883671258,-0.003157434522000686,0.0038298784408681615,0.9998109565560157,0.00022689280275926284,0.0,0.0,0.0,0.00019198621771937625,0.0,0.0,0.0,0.00010471975511965978,0.0019373154697137059,-0.005009094953223725,0.0032114058236695662,0.0005585053606381855,0.0,0.0,0.0,0.0004886921905584122,0.0,0.0,0.0,0.00010471975511965978,-0.43149259999999995,-0.06864655,9.80665,0.0064,0.0,0.0,0.0,0.0063,0.0,0.0,0.0,0.0064
1728111965405571453,22288,1728111965405237825,/map,0.01879067031623456,-0.0031747539679121617,0.003838903416279412,0.9998110293784873,0.00022689280275926284,0.0,0.0,0.0,0.00019198621771937625,0.0,0.0,0.0,0.00010471975511965978,0.0009424777960769379,0.0042935099599060505,0.001413716694115407,0.0005585053606381855,0.0,0.0,0.0,0.0004886921905584122,0.0,0.0,0.0,0.00010471975511965978,-0.4707192,0.0,9.757616749999999,0.0064,0.0,0.0,0.0,0.0063,0.0,0.0,0.0,0.0064
1728111965415713058,22289,1728111965415248837,/map,0.018773155441572015,-0.003157370960335259,0.0038385207788039317,0.9998114149186416,0.00022689280275926284,0.0,0.0,0.0,0.00019198621771937625,0.0,0.0,0.0,0.00010471975511965978,-0.0018849555921538759,-0.0019198621771937625,0.0025830872929516074,0.0005585053606381855,0.0,0.0,0.0,0.0004886921905584122,0.0,0.0,0.0,0.00010471975511965978,-0.55897905,-0.0784532,9.80665,0.0064,0.0,0.0,0.0,0.0063,0.0,0.0,0.0,0.0064
1728111965425655146,22290,1728111965425341892,/map,0.018773003462149957,-0.0031315235968349523,0.003820579932965385,0.9998115677816237,0.00022689280275926284,0.0,0.0,0.0,0.00019198621771937625,0.0,0.0,0.0,0.00010471975511965978,-0.0019896753472735357,-0.005672320068981571,-0.0007155849933176752,0.0005585053606381855,0.0,0.0,0.0,0.0004886921905584122,0.0,0.0,0.0,0.00010471975511965978,-0.5197524499999999,-0.10787314999999999,9.7870367,0.0064,0.0,0.0,0.0,0.0063,0.0,0.0,0.0,0.0064
1728111965437011713,22291,1728111965436553354,/map,0.018764191659876684,-0.003123159427597298,0.003802939058262813,0.9998118266159189,0.00022689280275926284,0.0,0.0,0.0,0.00019198621771937625,0.0,0.0,0.0,0.00010471975511965978,-0.004433136300065597,0.0023911010752322315,-0.008220500776893291,0.0005585053606381855,0.0,0.0,0.0,0.0004886921905584122,0.0,0.0,0.0,0.00010471975511965978,-0.5197524499999999,-0.04903325,9.826263299999999,0.0064,0.0,0.0,0.0,0.0063,0.0,0.0,0.0,0.0064
1728111965447003598,22292,1728111965446683265,/map,0.018746596046336928,-0.0031062665644480745,0.0037763827488676723,0.9998123099752473,0.00022689280275926284,0.0,0.0,0.0,0.00019198621771937625,0.0,0.0,0.0,0.00010471975511965978,0.0021642082724729686,0.0046251225177849735,-0.0043982297150257105,0.0005585053606381855,0.0,0.0,0.0,0.0004886921905584122,0.0,0.0,0.0,0.00010471975511965978,-0.5099457999999999,-0.12748644999999997,9.81645665,0.0064,0.0,0.0,0.0,0.0063,0.0,0.0,0.0,0.0064
1728111965458053824,22293,1728111965457679941,/map,0.018737726328629037,-0.003089340045316081,0.003749853983327251,0.9998126285385786,0.00022689280275926284,0.0,0.0,0.0,0.00019198621771937625,0.0,0.0,0.0,0.00010471975511965978,0.0044156830075456534,-0.0043982297150257105,0.0022689280275926286,0.0005585053606381855,0.0,0.0,0.0,0.0004886921905584122,0.0,0.0,0.0,0.00010471975511965978,-0.5295591,-0.0784532,9.757616749999999,0.0064,0.0,0.0,0.0,0.0063,0.0,0.0,0.0,0.0064
1728111965467790059,22294,1728111965467497154,/map,0.018746316524744785,-0.0030901252868554747,0.0037062558906653547,0.9998126276506706,0.00022689280275926284,0.0,0.0,0.0,0.00019198621771937625,0.0,0.0,0.0,0.00010471975511965978,0.0072082098107365804,0.001308996938995747,-0.0042935099599060505,0.0005585053606381855,0.0,0.0,0.0,0.0004886921905584122,0.0,0.0,0.0,0.00010471975511965978,-0.48052585,-0.0980665,9.7085835,0.0064,0.0,0.0,0.0,0.0063,0.0,0.0,0.0,0.0064
1728111965477471954,22295,1728111965477230266,/map,0.018746266700119158,-0.0030993410788100794,0.003680244248000251,0.999812696144613,0.00022689280275926284,0.0,0.0,0.0,0.00019198621771937625,0.0,0.0,0.0,0.00010471975511965978,0.0013788101090755204,-0.0028623399732707008,-0.012356931104119853,0.0005585053606381855,0.0,0.0,0.0,0.0004886921905584122,0.0,0.0,0.0,0.00010471975511965978,-0.37265269999999995,-0.00980665,9.836069949999999,0.0064,0.0,0.0,0.0,0.0063,0.0,0.0,0.0,0.0064
1728111965487250793,22296,1728111965486966108,/map,0.01874612384636947,-0.003082381820816307,0.003653742425840662,0.9998128484518155,0.00022689280275926284,0.0,0.0,0.0,0.00019198621771937625,0.0,0.0,0.0,0.00010471975511965978,-0.0009773843811168245,0.006457718232379019,-0.008674286382411817,0.0005585053606381855,0.0,0.0,0.0,0.0004886921905584122,0.0,0.0,0.0,0.00010471975511965978,-0.36284605,0.02941995,9.738003449999999,0.0064,0.0,0.0,0.0,0.0063,0.0,0.0,0.0,0.0064
1728111965497991202,22297,1728111965497724264,/map,0.01874606616741575,-0.0030738203943460446,0.003644854019122533,0.9998129083336589,0.00022689280275926284,0.0,0.0,0.0,0.00019198621771937625,0.0,0.0,0.0,0.00010471975511965978,-0.005009094953223725,0.0035953782591083188,-0.00012217304763960306,0.0005585053606381855,0.0,0.0,0.0,0.0004886921905584122,0.0,0.0,0.0,0.00010471975511965978,-0.35303939999999995,-0.02941995,9.826263299999999,0.0064,0.0,0.0,0.0,0.0063,0.0,0.0,0.0,0.0064
1728111965507711079,22298,1728111965507410650,/map,0.018754729617715283,-0.003056338554739255,0.0036445539029650175,0.9998128005474092,0.00022689280275926284,0.0,0.0,0.0,0.00019198621771937625,0.0,0.0,0.0,0.00010471975511965978,0.0014660765716752368,0.00015707963267948965,-0.0006108652381980154,0.0005585053606381855,0.0,0.0,0.0,0.0004886921905584122,0.0,0.0,0.0,0.00010471975511965978,-0.43149259999999995,0.0196133,9.8851032,0.0064,0.0,0.0,0.0,0.0063,0.0,0.0,0.0,0.0064
1728111965517423545,22299,1728111965517139391,/map,0.01876345044090931,-0.0030474179930200084,0.003653142039085983,0.9998126328089527,0.00022689280275926284,0.0,0.0,0.0,0.00019198621771937625,0.0,0.0,0.0,0.00010471975511965978,0.002617993877991494,-0.0018849555921538759,-0.0011519173063162576,0.0005585053606381855,0.0,0.0,0.0,0.0004886921905584122,0.0,0.0,0.0,0.00010471975511965978,-0.34323275000000003,-0.00980665,9.757616749999999,0.0064,0.0,0.0,0.0,0.0063,0.0,0.0,0.0,0.0064
1728111965527220623,22300,1728111965526886400,/map,0.018763503625529136,-0.003047090508566648,0.0036705920608742413,0.999812568897316,0.00022689280275926284,0.0,0.0,0.0,0.00019198621771937625,0.0,0.0,0.0,0.00010471975511965978,-0.0038222710618675817,0.010681415022205296,0.0057246799465414016,0.0005585053606381855,0.0,0.0,0.0,0.0004886921905584122,0.0,0.0,0.0,0.00010471975511965978,-0.44129925,-0.06864655,9.7870367,0.0064,0.0,0.0,0.0,0.0063,0.0,0.0,0.0,0.0064
1728111965538104282,22301,1728111965537742082,/map,0.018754889621519135,-0.0030553565552036894,0.0036969039737646345,0.9998126083484914,0.00022689280275926284,0.0,0.0,0.0,0.00019198621771937625,0.0,0.0,0.0,0.00010471975511965978,0.004537856055185257,-0.005113814708343385,0.012950343049797926,0.0005585053606381855,0.0,0.0,0.0,0.0004886921905584122,0.0,0.0,0.0,0.00010471975511965978,-0.34323275000000003,-0.00980665,9.7674234,0.0064,0.0,0.0,0.0,0.0063,0.0,0.0,0.0,0.0064
1728111965547747489,22302,1728111965547480296,/map,0.018728767907085334,-0.0030551264606768513,0.003714274013368477,0.9998130343336925,0.00022689280275926284,0.0,0.0,0.0,0.00019198621771937625,0.0,0.0,0.0,0.00010471975511965978,-0.0046251225177849735,0.007225663103256524,0.006876597252857658,0.0005585053606381855,0.0,0.0,0.0,0.0004886921905584122,0.0,0.0,0.0,0.00010471975511965978,-0.43149259999999995,-0.21574629999999997,9.747810099999999,0.0064,0.0,0.0,0.0,0.0063,0.0,0.0,0.0,0.0064
1728111965557575367,22303,1728111965557278402,/map,0.01872887950395844,-0.003063361159099958,0.0037406122952449166,0.9998129088537474,0.00022689280275926284,0.0,0.0,0.0,0.00019198621771937625,0.0,0.0,0.0,0.00010471975511965978,-0.0006981317007977319,-0.0011693705988362008,0.004886921905584123,0.0005585053606381855,0.0,0.0,0.0,0.0004886921905584122,0.0,0.0,0.0,0.00010471975511965978,-0.4903325,-0.12748644999999997,9.7674234,0.0064,0.0,0.0,0.0,0.0063,0.0,0.0,0.0,0.0064
1728111965567424172,22304,1728111965567066256,/map,0.018728964737965918,-0.0030717592947016323,0.0037582255601866905,0.9998128154386291,0.00022689280275926284,0.0,0.0,0.0,0.00019198621771937625,0.0,0.0,0.0,0.00010471975511965978,-0.002949606435870417,-0.008290313946973065,0.003787364476827695,0.0005585053606381855,0.0,0.0,0.0,0.0004886921905584122,0.0,0.0,0.0,0.00010471975511965978,-0.4707192,-0.16671305,9.875296549999998,0.0064,0.0,0.0,0.0,0.0063,0.0,0.0,0.0,0.0064
1728111965577380758,22305,1728111965577002392,/map,0.01872029333452103,-0.0030714653610018983,0.0037756487816984936,0.9998129130963868,0.00022689280275926284,0.0,0.0,0.0,0.00019198621771937625,0.0,0.0,0.0,0.00010471975511965978,-0.002181661564992912,0.0033859387488689996,0.003403392041388943,0.0005585053606381855,0.0,0.0,0.0,0.0004886921905584122,0.0,0.0,0.0,0.00010471975511965978,-0.45110589999999995,-0.17651969999999997,9.845876599999999,0.0064,0.0,0.0,0.0,0.0063,0.0,0.0,0.0,0.0064
1728111965586990369,22306,1728111965586747508,/map,0.01870284330443317,-0.003071531258036723,0.0037755951739400218,0.9998132396748621,0.00022689280275926284,0.0,0.0,0.0,0.00019198621771937625,0.0,0.0,0.0,0.00010471975511965978,-0.006108652381980153,-0.0006457718232379018,0.0052010811709431014,0.0005585053606381855,0.0,0.0,0.0,0.0004886921905584122,0.0,0.0,0.0,0.00010471975511965978,-0.43149259999999995,-0.22555294999999997,9.80665,0.0064,0.0,0.0,0.0,0.0063,0.0,0.0,0.0,0.0064
1728111965597822531,22307,1728111965597537022,/map,0.018702870107887782,-0.003071368044822196,0.0037843201902648263,0.9998132066885085,0.00022689280275926284,0.0,0.0,0.0,0.00019198621771937625,0.0,0.0,0.0,0.00010471975511965978,-0.006073745796940267,0.0013439035240356337,0.005427973973702365,0.0005585053606381855,0.0,0.0,0.0,0.0004886921905584122,0.0,0.0,0.0,0.00010471975511965978,-0.36284605,-0.1569064,9.81645665,0.0064,0.0,0.0,0.0,0.0063,0.0,0.0,0.0,0.0064
1728111965607517295,22308,1728111965607236071,/map,0.018685478950765902,-0.0030799960544803527,0.0037931544594700575,0.9998134718435893,0.00022689280275926284,0.0,0.0,0.0,0.00019198621771937625,0.0,0.0,0.0,0.00010471975511965978,-0.0035953782591083188,-0.0020245819323134223,0.0005061454830783556,0.0005585053606381855,0.0,0.0,0.0,0.0004886921905584122,0.0,0.0,0.0,0.00010471975511965978,-0.34323275000000003,-0.10787314999999999,9.826263299999999,0.0064,0.0,0.0,0.0,0.0063,0.0,0.0,0.0,0.0064
1728111965617223104,22309,1728111965616925957,/map,0.0186855160664293,-0.0030976091606765223,0.003784755153221351,0.999813448566906,0.00022689280275926284,0.0,0.0,0.0,0.00019198621771937625,0.0,0.0,0.0,0.00010471975511965978,0.006614797865058509,0.0072954762733362976,0.005794493116621174,0.0005585053606381855,0.0,0.0,0.0,0.0004886921905584122,0.0,0.0,0.0,0.00010471975511965978,-0.3334261,-0.12748644999999997,9.7281968,0.0064,0.0,0.0,0.0,0.0063,0.0,0.0,0.0,0.0064
1728111965627971532,22310,1728111965627676031,/map,0.018694245970530307,-0.0031064642911283313,0.00377622009995418,0.9998132901741994,0.00022689280275926284,0.0,0.0,0.0,0.00019198621771937625,0.0,0.0,0.0,0.00010471975511965978,-0.0011344640137963143,0.000767944870877505,0.0031764992386296795,0.0005585053606381855,0.0,0.0,0.0,0.0004886921905584122,0.0,0.0,0.0,0.00010471975511965978,-0.28439285,-0.06864655,9.757616749999999,0.0064,0.0,0.0,0.0,0.0063,0.0,0.0,0.0,0.0064
1728111965637598802,22311,1728111965637355843,/map,0.01870300755760928,-0.0031240445901243434,0.003767848209409197,0.9998131031215634,0.00022689280275926284,0.0,0.0,0.0,0.00019198621771937625,0.0,0.0,0.0,0.00010471975511965978,0.002897246558310587,-0.006440264939859076,0.0026878070480712674,0.0005585053606381855,0.0,0.0,0.0,0.0004886921905584122,0.0,0.0,0.0,0.00010471975511965978,-0.3334261,-0.00980665,9.826263299999999,0.0064,0.0,0.0,0.0,0.0063,0.0,0.0,0.0,0.0064
1728111965647460683,22312,1728111965647190405,/map,0.01870310306740857,-0.0031502196464750364,0.003768337231576454,0.9998130173619155,0.00022689280275926284,0.0,0.0,0.0,0.00019198621771937625,0.0,0.0,0.0,0.00010471975511965978,-0.002827433388230814,-0.004031710572106902,-0.006824237375297829,0.0005585053606381855,0.0,0.0,0.0,0.0004886921905584122,0.0,0.0,0.0,0.00010471975511965978,-0.29419949999999995,-0.04903325,9.8654899,0.0064,0.0,0.0,0.0,0.0063,0.0,0.0,0.0,0.0064
1728111965657246598,22313,1728111965656910385,/map,0.018703166733486487,-0.0031676696828437574,0.0037686632449197696,0.9998129598081165,0.00022689280275926284,0.0,0.0,0.0,0.00019198621771937625,0.0,0.0,0.0,0.00010471975511965978,0.0005759586531581288,-0.0020245819323134223,0.0031764992386296795,0.0005585053606381855,0.0,0.0,0.0,0.0004886921905584122,0.0,0.0,0.0,0.00010471975511965978,-0.3334261,-0.0784532,9.7870367,0.0064,0.0,0.0,0.0,0.0063,0.0,0.0,0.0,0.0064
1728111965666940137,22314,1728111965666617152,/map,0.018720672040955958,-0.003167277169896394,0.0037861685523892462,0.999812567295169,0.00022689280275926284,0.0,0.0,0.0,0.00019198621771937625,0.0,0.0,0.0,0.00010471975511965978,-0.0030892327760299633,0.004328416544945937,-0.0026529004630313807,0.0005585053606381855,0.0,0.0,0.0,0.0004886921905584122,0.0,0.0,0.0,0.00010471975511965978,-0.34323275000000003,-0.08825984999999999,9.836069949999999,0.0064,0.0,0.0,0.0,0.0063,0.0,0.0,0.0,0.0064
1728111965677567923,22315,1728111965677380218,/map,0.018711915045286586,-0.003158585194245089,0.003785977830372253,0.9998127594438754,0.00022689280275926284,0.0,0.0,0.0,0.00019198621771937625,0.0,0.0,0.0,0.00010471975511965978,-0.00020943951023931956,-0.002373647782712288,0.002617993877991494,0.0005585053606381855,0.0,0.0,0.0,0.0004886921905584122,0.0,0.0,0.0,0.00010471975511965978,-0.43149259999999995,-0.1569064,9.79684335,0.0064,0.0,0.0,0.0,0.0063,0.0,0.0,0.0,0.0064
1728111965687612789,22316,1728111965687255202,/map,0.018711814352196918,-0.0031235218362431726,0.003794050511960681,0.9998128408835826,0.00022689280275926284,0.0,0.0,0.0,0.00019198621771937625,0.0,0.0,0.0,0.00010471975511965978,-0.006161012259539983,0.009023352232810684,0.003543018381548489,0.0005585053606381855,0.0,0.0,0.0,0.0004886921905584122,0.0,0.0,0.0,0.00010471975511965978,-0.4903325,-0.12748644999999997,9.79684335,0.0064,0.0,0.0,0.0,0.0063,0.0,0.0,0.0,0.0064
1728111965697369854,22317,1728111965697041543,/map,0.01872056662134127,-0.003123325359143766,0.0038028027811050358,0.9998126444064831,0.00022689280275926284,0.0,0.0,0.0,0.00019198621771937625,0.0,0.0,0.0,0.00010471975511965978,0.0009773843811168245,-0.005235987755982988,0.002495820830351891,0.0005585053606381855,0.0,0.0,0.0,0.0004886921905584122,0.0,0.0,0.0,0.00010471975511965978,-0.48052585,-0.10787314999999999,9.7674234,0.0064,0.0,0.0,0.0,0.0063,0.0,0.0,0.0,0.0064
1728111965707085571,22318,1728111965706719480,/map,0.018720438038736863,-0.0030884252965344416,0.0038021501423651403,0.9998127577117228,0.00022689280275926284,0.0,0.0,0.0,0.00019198621771937625,0.0,0.0,0.0,0.00010471975511965978,-0.0015707963267948964,-0.005009094953223725,0.0015533430342749533,0.0005585053606381855,0.0,0.0,0.0,0.0004886921905584122,0.0,0.0,0.0,0.00010471975511965978,-0.55897905,-0.10787314999999999,9.79684335,0.0064,0.0,0.0,0.0,0.0063,0.0,0.0,0.0,0.0064
1728111965717891615,22319,1728111965717487223,/map,0.018729130901317014,-0.0030796671015797146,0.0038020138572664236,0.9998126224432526,0.00022689280275926284,0.0,0.0,0.0,0.00019198621771937625,0.0,0.0,0.0,0.00010471975511965978,0.0022689280275926286,-0.0053058009260627615,1.7453292519943296e-05,0.0005585053606381855,0.0,0.0,0.0,0.0004886921905584122,0.0,0.0,0.0,0.00010471975511965978,-0.4903325,-0.18632634999999997,9.8851032,0.0064,0.0,0.0,0.0,0.0063,0.0,0.0,0.0,0.0064
1728111965727582535,22320,1728111965727222610,/map,0.018729104025438467,-0.00307983054396258,0.0037932888460394474,0.9998126555840126,0.00022689280275926284,0.0,0.0,0.0,0.00019198621771937625,0.0,0.0,0.0,0.00010471975511965978,-0.0018500490071139892,-0.0019024088846738192,-0.0048345620280242935,0.0005585053606381855,0.0,0.0,0.0,0.0004886921905584122,0.0,0.0,0.0,0.00010471975511965978,-0.44129925,-0.0980665,9.79684335,0.0064,0.0,0.0,0.0,0.0063,0.0,0.0,0.0,0.0064
1728111965737237482,22321,1728111965736893456,/map,0.018737770161209526,-0.0030712359452564997,0.00378442739892911,0.9998125532260618,0.00022689280275926284,0.0,0.0,0.0,0.00019198621771937625,0.0,0.0,0.0,0.00010471975511965978,0.006597344572538566,0.009180431865490174,-0.0009773843811168245,0.0005585053606381855,0.0,0.0,0.0,0.0004886921905584122,0.0,0.0,0.0,0.00010471975511965978,-0.37265269999999995,-0.17651969999999997,9.845876599999999,0.0064,0.0,0.0,0.0,0.0063,0.0,0.0,0.0,0.0064
1728111965747404866,22322,1728111965746968550,/map,0.018746382990012127,-0.0030629686869933104,0.003758115781298607,0.9998125163816407,0.00022689280275926284,0.0,0.0,0.0,0.00019198621771937625,0.0,0.0,0.0,0.00010471975511965978,-0.0026005405854715507,0.003560471674068432,0.002234021442552742,0.0005585053606381855,0.0,0.0,0.0,0.0004886921905584122,0.0,0.0,0.0,0.00010471975511965978,-0.3334261,-0.04903325,9.7281968,0.0064,0.0,0.0,0.0,0.0063,0.0,0.0,0.0,0.0064
1728111965756991495,22323,1728111965756718992,/map,0.018755090888063115,-0.0030808769238911938,0.0037322944178475943,0.9998123947729087,0.00022689280275926284,0.0,0.0,0.0,0.00019198621771937625,0.0,0.0,0.0,0.00010471975511965978,0.001308996938995747,-0.005061454830783556,-0.00973893722612836,0.0005585053606381855,0.0,0.0,0.0,0.0004886921905584122,0.0,0.0,0.0,0.00010471975511965978,-0.29419949999999995,-0.00980665,9.7674234,0.0064,0.0,0.0,0.0,0.0063,0.0,0.0,0.0,0.0064
1728111965767771803,22324,1728111965767483506,/map,0.018755068500592522,-0.003089929274822977,0.0037150078665130863,0.999812431638638,0.00022689280275926284,0.0,0.0,0.0,0.00019198621771937625,0.0,0.0,0.0,0.00010471975511965978,0.0012566370614359172,-0.0015184364492350666,0.00307177948351002,0.0005585053606381855,0.0,0.0,0.0,0.0004886921905584122,0.0,0.0,0.0,0.00010471975511965978,-0.3138128,0.00980665,9.757616749999999,0.0064,0.0,0.0,0.0,0.0063,0.0,0.0,0.0,0.0064
1728111965777724709,22325,1728111965777409865,/map,0.018755049912544817,-0.0031078703078669698,0.0036891597724690943,0.9998124720891916,0.00022689280275926284,0.0,0.0,0.0,0.00019198621771937625,0.0,0.0,0.0,0.00010471975511965978,-0.0013439035240356337,-0.008918632477691025,-0.012810716709638379,0.0005585053606381855,0.0,0.0,0.0,0.0004886921905584122,0.0,0.0,0.0,0.00010471975511965978,-0.24516625,0.00980665,9.69877685,0.0064,0.0,0.0,0.0,0.0063,0.0,0.0,0.0,0.0064
1728111965787625585,22326,1728111965787265952,/map,0.018772480409620245,-0.0031257474037702905,0.0036633662328790497,0.9998121840777305,0.00022689280275926284,0.0,0.0,0.0,0.00019198621771937625,0.0,0.0,0.0,0.00010471975511965978,-0.0016231562043547264,0.0009773843811168245,-0.0075223690760955605,0.0005585053606381855,0.0,0.0,0.0,0.0004886921905584122,0.0,0.0,0.0,0.00010471975511965978,-0.26477955,0.0392266,9.8654899,0.0064,0.0,0.0,0.0,0.0063,0.0,0.0,0.0,0.0064
1728111965797750464,22327,1728111965797234483,/map,0.01878114729103986,-0.0031171543215806033,0.0036545048076162706,0.999812080568133,0.00022689280275926284,0.0,0.0,0.0,0.00019198621771937625,0.0,0.0,0.0,0.00010471975511965978,0.003979350694547071,0.004101523742186674,-0.003403392041388943,0.0005585053606381855,0.0,0.0,0.0,0.0004886921905584122,0.0,0.0,0.0,0.00010471975511965978,-0.32361945,-0.02941995,9.826263299999999,0.0064,0.0,0.0,0.0,0.0063,0.0,0.0,0.0,0.0064
1728111965807777495,22328,1728111965807384192,/map,0.018789906634519453,-0.003134736419756095,0.003646134550114438,0.9998118915771543,0.00022689280275926284,0.0,0.0,0.0,0.00019198621771937625,0.0,0.0,0.0,0.00010471975511965978,0.0056199601914217415,0.0070685834705770355,0.010210176124166827,0.0005585053606381855,0.0,0.0,0.0,0.0004886921905584122,0.0,0.0,0.0,0.00010471975511965978,-0.3138128,-0.0784532,9.79684335,0.0064,0.0,0.0,0.0,0.0063,0.0,0.0,0.0,0.0064
1728111965818027678,22329,1728111965817568623,/map,0.01880738399552969,-0.003134508656957931,0.003654914262732968,0.9998115316220634,0.00022689280275926284,0.0,0.0,0.0,0.00019198621771937625,0.0,0.0,0.0,0.00010471975511965978,-6.981317007977319e-05,-0.003141592653589793,0.0036477381366681488,0.0005585053606381855,0.0,0.0,0.0,0.0004886921905584122,0.0,0.0,0.0,0.00010471975511965978,-0.38245935,0.06864655,9.79684335,0.0064,0.0,0.0,0.0,0.0063,0.0,0.0,0.0,0.0064
1728111965827936947,22330,1728111965827599242,/map,0.01883366839394965,-0.003133755553314038,0.0036898963095446397,0.9998109107107123,0.00022689280275926284,0.0,0.0,0.0,0.00019198621771937625,0.0,0.0,0.0,0.00010471975511965978,0.0007330382858376184,0.0041887902047863905,0.0020420352248333657,0.0005585053606381855,0.0,0.0,0.0,0.0004886921905584122,0.0,0.0,0.0,0.00010471975511965978,-0.4118793,0.0,9.79684335,0.0064,0.0,0.0,0.0,0.0063,0.0,0.0,0.0,0.0064
1728111965838120023,22331,1728111965837786783,/map,0.01885117307372665,-0.0031333621374363403,0.003707400989321638,0.9998105172948345,0.00022689280275926284,0.0,0.0,0.0,0.00019198621771937625,0.0,0.0,0.0,0.00010471975511965978,0.006335545184739416,-0.0005585053606381855,0.01017526953912694,0.0005585053606381855,0.0,0.0,0.0,0.0004886921905584122,0.0,0.0,0.0,0.00010471975511965978,-0.4216859499999999,-0.02941995,9.757616749999999,0.0064,0.0,0.0,0.0,0.0063,0.0,0.0,0.0,0.0064
1728111965848347904,22332,1728111965848004413,/map,0.01885133711034366,-0.0031323750880276465,0.0037597509404842795,0.9998103218052541,0.00022689280275926284,0.0,0.0,0.0,0.00019198621771937625,0.0,0.0,0.0,0.00010471975511965978,-0.001954768762233649,-0.004241150082346221,0.01096066770252439,0.0005585053606381855,0.0,0.0,0.0,0.0004886921905584122,0.0,0.0,0.0,0.00010471975511965978,-0.34323275000000003,-0.08825984999999999,9.79684335,0.0064,0.0,0.0,0.0,0.0063,0.0,0.0,0.0,0.0064
1728111965859713182,22333,1728111965859406847,/map,0.018816601126698456,-0.003131521095547186,0.0038119915729543465,0.9998107810070438,0.00022689280275926284,0.0,0.0,0.0,0.00019198621771937625,0.0,0.0,0.0,0.00010471975511965978,0.0012915436464758037,0.0035081117965086025,0.012322024519079966,0.0005585053606381855,0.0,0.0,0.0,0.0004886921905584122,0.0,0.0,0.0,0.00010471975511965978,-0.4118793,-0.1569064,9.747810099999999,0.0064,0.0,0.0,0.0,0.0063,0.0,0.0,0.0,0.0064
1728111965870163296,22334,1728111965869774102,/map,0.018790584650773965,-0.0031217480431417442,0.0038728208105377284,0.9998110670904812,0.00022689280275926284,0.0,0.0,0.0,0.00019198621771937625,0.0,0.0,0.0,0.00010471975511965978,-0.008237954069413234,-0.0010471975511965976,0.007243116395776467,0.0005585053606381855,0.0,0.0,0.0,0.0004886921905584122,0.0,0.0,0.0,0.00010471975511965978,-0.44129925,-0.21574629999999997,9.79684335,0.0064,0.0,0.0,0.0,0.0063,0.0,0.0,0.0,0.0064
1728111965880562977,22335,1728111965880143840,/map,0.018773177500542654,-0.0031037103213237037,0.0039073390977582756,0.9998113159441383,0.00022689280275926284,0.0,0.0,0.0,0.00019198621771937625,0.0,0.0,0.0,0.00010471975511965978,-0.0013788101090755204,0.003944444109507185,0.004223696789826277,0.0005585053606381855,0.0,0.0,0.0,0.0004886921905584122,0.0,0.0,0.0,0.00010471975511965978,-0.5197524499999999,-0.29419949999999995,9.757616749999999,0.0064,0.0,0.0,0.0,0.0063,0.0,0.0,0.0,0.0064
1728111965890736085,22336,1728111965890279513,/map,0.018738298448047835,-0.0030947946572567513,0.003924517456989467,0.9998119306049668,0.00022689280275926284,0.0,0.0,0.0,0.00019198621771937625,0.0,0.0,0.0,0.00010471975511965978,-0.0021642082724729686,-0.001780235837034216,0.00034906585039886593,0.0005585053606381855,0.0,0.0,0.0,0.0004886921905584122,0.0,0.0,0.0,0.00010471975511965978,-0.5491724,-0.32361945,9.826263299999999,0.0064,0.0,0.0,0.0,0.0063,0.0,0.0,0.0,0.0064
1728111965900991867,22337,1728111965900610689,/map,0.01865951432916282,-0.0030341905550241464,0.00391441098845279,0.9998136294326504,0.00022689280275926284,0.0,0.0,0.0,0.00019198621771937625,0.0,0.0,0.0,0.00010471975511965978,0.003560471674068432,0.008429940287132611,-0.0038746309394274117,0.0005585053606381855,0.0,0.0,0.0,0.0004886921905584122,0.0,0.0,0.0,0.00010471975511965978,-0.5197524499999999,-0.3138128,9.826263299999999,0.0064,0.0,0.0,0.0,0.0063,0.0,0.0,0.0,0.0064
1728111965910903484,22338,1728111965910645410,/map,0.0186768054741892,-0.003035100154609832,0.003862113836970234,0.9998135072007386,0.00022689280275926284,0.0,0.0,0.0,0.00019198621771937625,0.0,0.0,0.0,0.00010471975511965978,-0.0014486232791552935,-0.00476474885794452,-0.00890117918517108,0.0005585053606381855,0.0,0.0,0.0,0.0004886921905584122,0.0,0.0,0.0,0.00010471975511965978,-0.46091255,-0.26477955,9.7870367,0.0064,0.0,0.0,0.0,0.0063,0.0,0.0,0.0,0.0064
1728111965920922798,22339,1728111965920617656,/map,0.018676555716248842,-0.0030187910003378064,0.0038007131349998198,0.9998137965377052,0.00022689280275926284,0.0,0.0,0.0,0.00019198621771937625,0.0,0.0,0.0,0.00010471975511965978,0.005829399701661061,0.018884462506578648,-0.015742869852988853,0.0005585053606381855,0.0,0.0,0.0,0.0004886921905584122,0.0,0.0,0.0,0.00010471975511965978,-0.50013915,-0.17651969999999997,9.77723005,0.0064,0.0,0.0,0.0,0.0063,0.0,0.0,0.0,0.0064
1728111965931085819,22340,1728111965930729187,/map,0.018685006835935183,-0.003002612251811313,0.0037306135898711595,0.9998139513736791,0.00022689280275926284,0.0,0.0,0.0,0.00019198621771937625,0.0,0.0,0.0,0.00010471975511965978,0.0010122909661567112,0.005131268000863329,-0.012758356832078549,0.0005585053606381855,0.0,0.0,0.0,0.0004886921905584122,0.0,0.0,0.0,0.00010471975511965978,-0.4216859499999999,-0.08825984999999999,9.7674234,0.0064,0.0,0.0,0.0,0.0063,0.0,0.0,0.0,0.0064
1728111965941062338,22341,1728111965940725527,/map,0.018710941291440596,-0.002995095838766354,0.0036607289495179367,0.9998137472251835,0.00022689280275926284,0.0,0.0,0.0,0.00019198621771937625,0.0,0.0,0.0,0.00010471975511965978,0.0029146998508305304,-0.0037524578917878084,-0.01715658654710426,0.0005585053606381855,0.0,0.0,0.0,0.0004886921905584122,0.0,0.0,0.0,0.00010471975511965978,-0.4118793,0.0392266,9.7870367,0.0064,0.0,0.0,0.0,0.0063,0.0,0.0,0.0,0.0064
1728111965951457272,22342,1728111965950980309,/map,0.018728234485207246,-0.002996012558707964,0.0036084311099696363,0.9998136108129053,0.00022689280275926284,0.0,0.0,0.0,0.00019198621771937625,0.0,0.0,0.0,0.00010471975511965978,-0.0017976891295541594,0.0005585053606381855,-0.013386675362796507,0.0005585053606381855,0.0,0.0,0.0,0.0004886921905584122,0.0,0.0,0.0,0.00010471975511965978,-0.36284605,0.08825984999999999,9.9047165,0.0064,0.0,0.0,0.0,0.0063,0.0,0.0,0.0,0.0064
1728111965961489102,22343,1728111965961145072,/map,0.018771815342756383,-0.0030139604019548735,0.0035739890322113977,0.9998128632868405,0.00022689280275926284,0.0,0.0,0.0,0.00019198621771937625,0.0,0.0,0.0,0.00010471975511965978,0.0028099800957108708,-0.005759586531581287,-0.009930923443847734,0.0005585053606381855,0.0,0.0,0.0,0.0004886921905584122,0.0,0.0,0.0,0.00010471975511965978,-0.36284605,0.06864655,9.875296549999998,0.0064,0.0,0.0,0.0,0.0063,0.0,0.0,0.0,0.0064
1728111965971802651,22344,1728111965971413092,/map,0.01883289784711167,-0.003031520783282115,0.0035570514493062206,0.9998117218883803,0.00022689280275926284,0.0,0.0,0.0,0.00019198621771937625,0.0,0.0,0.0,0.00010471975511965978,0.0004886921905584122,-0.00895353906273091,-0.010000736613927507,0.0005585053606381855,0.0,0.0,0.0,0.0004886921905584122,0.0,0.0,0.0,0.00010471975511965978,-0.36284605,0.14709974999999997,9.77723005,0.0064,0.0,0.0,0.0,0.0063,0.0,0.0,0.0,0.0064
1728111965982256892,22345,1728111965981788240,/map,0.018850434499735547,-0.003048744206977509,0.0035661579802597435,0.9998113065949951,0.00022689280275926284,0.0,0.0,0.0,0.00019198621771937625,0.0,0.0,0.0,0.00010471975511965978,-0.0006981317007977319,-0.0076270888312152205,-0.007120943348136864,0.0005585053606381855,0.0,0.0,0.0,0.0004886921905584122,0.0,0.0,0.0,0.00010471975511965978,-0.38245935,0.0980665,9.7870367,0.0064,0.0,0.0,0.0,0.0063,0.0,0.0,0.0,0.0064
1728111965992056883,22346,1728111965991757217,/map,0.01890286427603839,-0.003048062604418336,0.003592492578941975,0.9998102245094274,0.00022689280275926284,0.0,0.0,0.0,0.00019198621771937625,0.0,0.0,0.0,0.00010471975511965978,-0.00471238898038469,0.006056292504420323,0.0018849555921538759,0.0005585053606381855,0.0,0.0,0.0,0.0004886921905584122,0.0,0.0,0.0,0.00010471975511965978,-0.40207265,0.1569064,9.7870367,0.0064,0.0,0.0,0.0,0.0063,0.0,0.0,0.0,0.0064
1728111966002182294,22347,1728111966001840515,/map,0.018929233618144203,-0.003064592589902412,0.0036365272883468955,0.9998095158859855,0.00022689280275926284,0.0,0.0,0.0,0.00019198621771937625,0.0,0.0,0.0,0.00010471975511965978,-0.008255407361933179,-0.0048520153205442364,0.00853466004225227,0.0005585053606381855,0.0,0.0,0.0,0.0004886921905584122,0.0,0.0,0.0,0.00010471975511965978,-0.24516625,0.04903325,9.71839015,0.0064,0.0,0.0,0.0,0.0063,0.0,0.0,0.0,0.0064
1728111966012496314,22348,1728111966011962334,/map,0.018929425210275967,-0.003072326439284833,0.0036890421786949746,0.9998092961356495,0.00022689280275926284,0.0,0.0,0.0,0.00019198621771937625,0.0,0.0,0.0,0.00010471975511965978,-6.981317007977319e-05,-0.008115781021773632,0.007819075048934596,0.0005585053606381855,0.0,0.0,0.0,0.0004886921905584122,0.0,0.0,0.0,0.00010471975511965978,-0.25497289999999995,0.0588399,9.747810099999999,0.0064,0.0,0.0,0.0,0.0063,0.0,0.0,0.0,0.0064
1728111966022649573,22349,1728111966022213958,/map,0.018912284979880598,-0.0030972454707707407,0.003759282936516764,0.9998092819828874,0.00022689280275926284,0.0,0.0,0.0,0.00019198621771937625,0.0,0.0,0.0,0.00010471975511965978,0.0010995574287564276,-0.0015882496193148398,0.007504915783575617,0.0005585053606381855,0.0,0.0,0.0,0.0004886921905584122,0.0,0.0,0.0,0.00010471975511965978,-0.32361945,-0.1176798,9.7870367,0.0064,0.0,0.0,0.0,0.0063,0.0,0.0,0.0,0.0064
1728111966032440545,22350,1728111966032157345,/map,0.018894970140842644,-0.003096486636509095,0.0038028537992730134,0.9998094469331984,0.00022689280275926284,0.0,0.0,0.0,0.00019198621771937625,0.0,0.0,0.0,0.00010471975511965978,-0.0018151424220741027,0.0037175513067479217,0.008691739674931762,0.0005585053606381855,0.0,0.0,0.0,0.0004886921905584122,0.0,0.0,0.0,0.00010471975511965978,-0.28439285,-0.17651969999999997,9.826263299999999,0.0064,0.0,0.0,0.0,0.0063,0.0,0.0,0.0,0.0064
1728111966042301519,22351,1728111966041951906,/map,0.01887762824981418,-0.003095894056707646,0.003837699697472086,0.9998096432084878,0.00022689280275926284,0.0,0.0,0.0,0.00019198621771937625,0.0,0.0,0.0,0.00010471975511965978,-0.00012217304763960306,0.002548180707911721,0.006649704450098395,0.0005585053606381855,0.0,0.0,0.0,0.0004886921905584122,0.0,0.0,0.0,0.00010471975511965978,-0.392266,-0.17651969999999997,9.836069949999999,0.0064,0.0,0.0,0.0,0.0063,0.0,0.0,0.0,0.0064
1728111966052178809,22352,1728111966051822556,/map,0.018877703552925635,-0.0030865101132810753,0.0038724351067920024,0.9998095368670136,0.00022689280275926284,0.0,0.0,0.0,0.00019198621771937625,0.0,0.0,0.0,0.00010471975511965978,0.007382742735936014,0.00815068760681352,0.00853466004225227,0.0005585053606381855,0.0,0.0,0.0,0.0004886921905584122,0.0,0.0,0.0,0.00010471975511965978,-0.44129925,-0.21574629999999997,9.836069949999999,0.0064,0.0,0.0,0.0,0.0063,0.0,0.0,0.0,0.0064
1728111966061774392,22353,1728111966061546710,/map,0.018834159416806242,-0.003086186001116763,0.0038984754013721983,0.999810257891253,0.00022689280275926284,0.0,0.0,0.0,0.00019198621771937625,0.0,0.0,0.0,0.00010471975511965978,-0.010471975511965976,-0.003892084231947355,0.006876597252857658,0.0005585053606381855,0.0,0.0,0.0,0.0004886921905584122,0.0,0.0,0.0,0.00010471975511965978,-0.37265269999999995,-0.30400615,9.81645665,0.0064,0.0,0.0,0.0,0.0063,0.0,0.0,0.0,0.0064
1728111966071840140,22354,1728111966071588517,/map,0.018825494415789686,-0.0030947807340494155,0.003907337531747716,0.9998103599211314,0.00022689280275926284,0.0,0.0,0.0,0.00019198621771937625,0.0,0.0,0.0,0.00010471975511965978,0.00012217304763960306,3.490658503988659e-05,0.0029845130209103037,0.0005585053606381855,0.0,0.0,0.0,0.0004886921905584122,0.0,0.0,0.0,0.00010471975511965978,-0.4216859499999999,-0.17651969999999997,9.836069949999999,0.0064,0.0,0.0,0.0,0.0063,0.0,0.0,0.0,0.0064
1728111966082033844,22355,1728111966081737512,/map,0.018799352493149082,-0.0031036080263617187,0.003907420351365445,0.9998108241208706,0.00022689280275926284,0.0,0.0,0.0,0.00019198621771937625,0.0,0.0,0.0,0.00010471975511965978,0.001064650843716541,0.0051836278784231585,0.003193952531149623,0.0005585053606381855,0.0,0.0,0.0,0.0004886921905584122,0.0,0.0,0.0,0.00010471975511965978,-0.5099457999999999,-0.28439285,9.81645665,0.0064,0.0,0.0,0.0,0.0063,0.0,0.0,0.0,0.0064
1728111966092686849,22356,1728111966092349654,/map,0.018764305575668508,-0.003086785657906215,0.0038808099310492345,0.9998116382123404,0.00022689280275926284,0.0,0.0,0.0,0.00019198621771937625,0.0,0.0,0.0,0.00010471975511965978,0.0035081117965086025,0.0024434609527920616,0.0015009831567151233,0.0005585053606381855,0.0,0.0,0.0,0.0004886921905584122,0.0,0.0,0.0,0.00010471975511965978,-0.45110589999999995,-0.24516625,9.81645665,0.0064,0.0,0.0,0.0,0.0063,0.0,0.0,0.0,0.0064
1728111966102735576,22357,1728111966102361335,/map,0.018772895874621755,-0.003087570916379964,0.00383721185918771,0.999811642806516,0.00022689280275926284,0.0,0.0,0.0,0.00019198621771937625,0.0,0.0,0.0,0.00010471975511965978,0.005794493116621174,-0.0033335788713091696,-0.008429940287132611,0.0005585053606381855,0.0,0.0,0.0,0.0004886921905584122,0.0,0.0,0.0,0.00010471975511965978,-0.48052585,-0.12748644999999997,9.80665,0.0064,0.0,0.0,0.0,0.0063,0.0,0.0,0.0,0.0064
1728111966113057856,22358,1728111966112687277,/map,0.01878151308960993,-0.0030881930306370206,0.0038023387964364833,0.999811612279807,0.00022689280275926284,0.0,0.0,0.0,0.00019198621771937625,0.0,0.0,0.0,0.00010471975511965978,-0.002617993877991494,-0.0018151424220741027,-0.0124965574442794,0.0005585053606381855,0.0,0.0,0.0,0.0004886921905584122,0.0,0.0,0.0,0.00010471975511965978,-0.40207265,-0.12748644999999997,9.836069949999999,0.0064,0.0,0.0,0.0,0.0063,0.0,0.0,0.0,0.0064
1728111966123030977,22359,1728111966122663258,/map,0.01879882832844203,-0.0030889469234002117,0.0037587676943626014,0.9998114492872152,0.00022689280275926284,0.0,0.0,0.0,0.00019198621771937625,0.0,0.0,0.0,0.00010471975511965978,0.005829399701661061,0.0025656340004316645,-0.013247049022636962,0.0005585053606381855,0.0,0.0,0.0,0.0004886921905584122,0.0,0.0,0.0,0.00010471975511965978,-0.4118793,-0.0392266,9.80665,0.0064,0.0,0.0,0.0,0.0063,0.0,0.0,0.0,0.0064
1728111966133212302,22360,1728111966132824434,/map,0.018789990913011843,-0.003080746640361752,0.00373240195846607,0.9998117394876134,0.00022689280275926284,0.0,0.0,0.0,0.00019198621771937625,0.0,0.0,0.0,0.00010471975511965978,-0.00799360797413403,0.008796459430051421,-0.0003839724354387525,0.0005585053606381855,0.0,0.0,0.0,0.0004886921905584122,0.0,0.0,0.0,0.00010471975511965978,-0.37265269999999995,-0.0392266,9.836069949999999,0.0064,0.0,0.0,0.0,0.0063,0.0,0.0,0.0,0.0064
1728111966144668739,22361,1728111966144193480,/map,0.018824832568457253,-0.003072055629284616,0.003723620420164031,0.9998111435685975,0.00022689280275926284,0.0,0.0,0.0,0.00019198621771937625,0.0,0.0,0.0,0.00010471975511965978,-0.0020943951023931952,-0.004886921905584123,-0.0019373154697137059,0.0005585053606381855,0.0,0.0,0.0,0.0004886921905584122,0.0,0.0,0.0,0.00010471975511965978,-0.34323275000000003,0.04903325,9.875296549999998,0.0064,0.0,0.0,0.0,0.0063,0.0,0.0,0.0,0.0064
1728111966154666218,22362,1728111966154248541,/map,0.018851070478513504,-0.0030894081389265804,0.003724029454837952,0.9998105942146166,0.00022689280275926284,0.0,0.0,0.0,0.00019198621771937625,0.0,0.0,0.0,0.00010471975511965978,0.003438298626428829,0.007138396640656807,-0.002548180707911721,0.0005585053606381855,0.0,0.0,0.0,0.0004886921905584122,0.0,0.0,0.0,0.00010471975511965978,-0.38245935,0.0392266,9.9047165,0.0064,0.0,0.0,0.0,0.0063,0.0,0.0,0.0,0.0064
1728111966165088818,22363,1728111966164647633,/map,0.01885985396507913,-0.0030979360530030754,0.0037329457870022573,0.9998103689282176,0.00022689280275926284,0.0,0.0,0.0,0.00019198621771937625,0.0,0.0,0.0,0.00010471975511965978,0.00916297857297023,-0.005899212871740834,-0.003490658503988659,0.0005585053606381855,0.0,0.0,0.0,0.0004886921905584122,0.0,0.0,0.0,0.00010471975511965978,-0.35303939999999995,0.0392266,9.738003449999999,0.0064,0.0,0.0,0.0,0.0063,0.0,0.0,0.0,0.0064
1728111966175262118,22364,1728111966174880355,/map,0.018886209728170355,-0.003132408659444149,0.003751135293310318,0.9998096959332338,0.00022689280275926284,0.0,0.0,0.0,0.00019198621771937625,0.0,0.0,0.0,0.00010471975511965978,0.0049741883681838385,-0.001117010721276371,0.001780235837034216,0.0005585053606381855,0.0,0.0,0.0,0.0004886921905584122,0.0,0.0,0.0,0.00010471975511965978,-0.3334261,-0.0588399,9.747810099999999,0.0064,0.0,0.0,0.0,0.0063,0.0,0.0,0.0,0.0064
1728111966185634707,22365,1728111966185254072,/map,0.018886237062873533,-0.003132243846053388,0.003759860278711073,0.9998096631603329,0.00022689280275926284,0.0,0.0,0.0,0.00019198621771937625,0.0,0.0,0.0,0.00010471975511965978,0.005864306286700947,-0.0057421332390613445,0.005340707511102648,0.0005585053606381855,0.0,0.0,0.0,0.0004886921905584122,0.0,0.0,0.0,0.00010471975511965978,-0.37265269999999995,-0.0392266,9.855683249999998,0.0064,0.0,0.0,0.0,0.0063,0.0,0.0,0.0,0.0064
1728111966195404546,22366,1728111966195107665,/map,0.01888629622749891,-0.0031408040211887045,0.0037687498701550466,0.9998096017189092,0.00022689280275926284,0.0,0.0,0.0,0.00019198621771937625,0.0,0.0,0.0,0.00010471975511965978,0.003909537524467298,0.0008726646259971648,-0.0009948376736367678,0.0005585053606381855,0.0,0.0,0.0,0.0004886921905584122,0.0,0.0,0.0,0.00010471975511965978,-0.392266,-0.04903325,9.747810099999999,0.0064,0.0,0.0,0.0,0.0063,0.0,0.0,0.0,0.0064
1728111966205298643,22367,1728111966204969439,/map,0.018895135488313564,-0.0031490014471996664,0.003795116908683251,0.9998093091847131,0.00022689280275926284,0.0,0.0,0.0,0.00019198621771937625,0.0,0.0,0.0,0.00010471975511965978,0.006108652381980153,-0.0061959188445798695,0.008639379797371931,0.0005585053606381855,0.0,0.0,0.0,0.0004886921905584122,0.0,0.0,0.0,0.00010471975511965978,-0.4118793,-0.02941995,9.894909849999998,0.0064,0.0,0.0,0.0,0.0063,0.0,0.0,0.0,0.0064
1728111966216140468,22368,1728111966215794515,/map,0.018886492940485382,-0.0031485401195726335,0.0038212643778353845,0.9998093743399684,0.00022689280275926284,0.0,0.0,0.0,0.00019198621771937625,0.0,0.0,0.0,0.00010471975511965978,0.0016755160819145565,0.004921828490624009,0.0108035880698449,0.0005585053606381855,0.0,0.0,0.0,0.0004886921905584122,0.0,0.0,0.0,0.00010471975511965978,-0.4118793,-0.0784532,9.8654899,0.0064,0.0,0.0,0.0,0.0063,0.0,0.0,0.0,0.0064
1728111966225812330,22369,1728111966225549086,/map,0.0188865204159621,-0.003148375303709765,0.003829989360427039,0.999809340955076,0.00022689280275926284,0.0,0.0,0.0,0.00019198621771937625,0.0,0.0,0.0,0.00010471975511965978,-0.0010471975511965976,0.00307177948351002,-0.002478367537831948,0.0005585053606381855,0.0,0.0,0.0,0.0004886921905584122,0.0,0.0,0.0,0.00010471975511965978,-0.43149259999999995,-0.06864655,9.7870367,0.0064,0.0,0.0,0.0,0.0063,0.0,0.0,0.0,0.0064
1728111966235488502,22370,1728111966235228944,/map,0.018895267828811853,-0.0031392871113410637,0.003847302116538884,0.9998091377840742,0.00022689280275926284,0.0,0.0,0.0,0.00019198621771937625,0.0,0.0,0.0,0.00010471975511965978,0.0012566370614359172,0.0028099800957108708,0.0070685834705770355,0.0005585053606381855,0.0,0.0,0.0,0.0004886921905584122,0.0,0.0,0.0,0.00010471975511965978,-0.4903325,-0.12748644999999997,9.77723005,0.0064,0.0,0.0,0.0,0.0063,0.0,0.0,0.0,0.0064
1728111966245360593,22371,1728111966245034988,/map,0.01888647781274249,-0.003121870712552403,0.0038469455124844894,0.9998093597728054,0.00022689280275926284,0.0,0.0,0.0,0.00019198621771937625,0.0,0.0,0.0,0.00010471975511965978,-0.0020245819323134223,0.00815068760681352,0.004310963252425994,0.0005585053606381855,0.0,0.0,0.0,0.0004886921905584122,0.0,0.0,0.0,0.00010471975511965978,-0.392266,-0.12748644999999997,9.747810099999999,0.0064,0.0,0.0,0.0,0.0063,0.0,0.0,0.0,0.0064
1728111966255201159,22372,1728111966254865515,/map,0.018868935710738468,-0.003104652537179851,0.0038378371337760672,0.9998097796100527,0.00022689280275926284,0.0,0.0,0.0,0.00019198621771937625,0.0,0.0,0.0,0.00010471975511965978,-0.001117010721276371,-0.005235987755982988,-0.004223696789826277,0.0005585053606381855,0.0,0.0,0.0,0.0004886921905584122,0.0,0.0,0.0,0.00010471975511965978,-0.45110589999999995,-0.0588399,9.80665,0.0064,0.0,0.0,0.0,0.0063,0.0,0.0,0.0,0.0064
1728111966264991324,22373,1728111966264687685,/map,0.01888621813380026,-0.0030966846360138273,0.00379410179223063,0.9998096449327031,0.00022689280275926284,0.0,0.0,0.0,0.00019198621771937625,0.0,0.0,0.0,0.00010471975511965978,0.007278022980816354,0.0029146998508305304,-0.006911503837897545,0.0005585053606381855,0.0,0.0,0.0,0.0004886921905584122,0.0,0.0,0.0,0.00010471975511965978,-0.43149259999999995,-0.0980665,9.826263299999999,0.0064,0.0,0.0,0.0,0.0063,0.0,0.0,0.0,0.0064
1728111966276271782,22374,1728111966275846298,/map,0.018894825238206955,-0.0030795313279030527,0.0037763494802567255,0.9998096024997064,0.00022689280275926284,0.0,0.0,0.0,0.00019198621771937625,0.0,0.0,0.0,0.00010471975511965978,-0.003298672286269283,0.0023911010752322315,-0.00799360797413403,0.0005585053606381855,0.0,0.0,0.0,0.0004886921905584122,0.0,0.0,0.0,0.00010471975511965978,-0.45110589999999995,-0.0588399,9.80665,0.0064,0.0,0.0,0.0,0.0063,0.0,0.0,0.0,0.0064
1728111966285849904,22375,1728111966285582660,/map,0.01890349647195063,-0.003079828301642368,0.0037589263869410236,0.9998095033311021,0.00022689280275926284,0.0,0.0,0.0,0.00019198621771937625,0.0,0.0,0.0,0.00010471975511965978,1.7453292519943296e-05,-0.0019722220547535923,0.0007155849933176752,0.0005585053606381855,0.0,0.0,0.0,0.0004886921905584122,0.0,0.0,0.0,0.00010471975511965978,-0.4118793,-0.0196133,9.79684335,0.0064,0.0,0.0,0.0,0.0063,0.0,0.0,0.0,0.0064
1728111966295592778,22376,1728111966295267174,/map,0.018920892681915397,-0.0030800929278753182,0.003741530176976259,0.999809238704869,0.00022689280275926284,0.0,0.0,0.0,0.00019198621771937625,0.0,0.0,0.0,0.00010471975511965978,0.0004014257279586958,0.0006806784082777885,-1.7453292519943296e-05,0.0005585053606381855,0.0,0.0,0.0,0.0004886921905584122,0.0,0.0,0.0,0.00010471975511965978,-0.392266,-0.04903325,9.826263299999999,0.0064,0.0,0.0,0.0,0.0063,0.0,0.0,0.0,0.0064
1728111966305528147,22377,1728111966305222149,/map,0.01892092429250375,-0.0030888179131404237,0.0037416950903236532,0.9998092105725309,0.00022689280275926284,0.0,0.0,0.0,0.00019198621771937625,0.0,0.0,0.0,0.00010471975511965978,-0.004380776422505767,-0.0007155849933176752,-0.0024260076602721182,0.0005585053606381855,0.0,0.0,0.0,0.0004886921905584122,0.0,0.0,0.0,0.00010471975511965978,-0.4707192,0.02941995,9.845876599999999,0.0064,0.0,0.0,0.0,0.0063,0.0,0.0,0.0,0.0064
1728111966315593401,22378,1728111966315306896,/map,0.018929734940861812,-0.00309717985843425,0.0037593369930753965,0.9998089517489657,0.00022689280275926284,0.0,0.0,0.0,0.00019198621771937625,0.0,0.0,0.0,0.00010471975511965978,0.0021642082724729686,0.005340707511102648,0.004886921905584123,0.0005585053606381855,0.0,0.0,0.0,0.0004886921905584122,0.0,0.0,0.0,0.00010471975511965978,-0.4118793,-0.0392266,9.77723005,0.0064,0.0,0.0,0.0,0.0063,0.0,0.0,0.0,0.0064
1728111966325547760,22379,1728111966325306725,/map,0.018929784028753293,-0.0030879592958681437,0.003785346940961197,0.9998088812030769,0.00022689280275926284,0.0,0.0,0.0,0.00019198621771937625,0.0,0.0,0.0,0.00010471975511965978,-0.0046251225177849735,0.001308996938995747,0.004380776422505767,0.0005585053606381855,0.0,0.0,0.0,0.0004886921905584122,0.0,0.0,0.0,0.00010471975511965978,-0.37265269999999995,-0.0980665,9.836069949999999,0.0064,0.0,0.0,0.0,0.0063,0.0,0.0,0.0,0.0064
1728111966335612086,22380,1728111966335261511,/map,0.018938649077802388,-0.003095990161451363,0.0038204388571260097,0.9998085550058905,0.00022689280275926284,0.0,0.0,0.0,0.00019198621771937625,0.0,0.0,0.0,0.00010471975511965978,0.0014486232791552935,-0.0014486232791552935,0.006335545184739416,0.0005585053606381855,0.0,0.0,0.0,0.0004886921905584122,0.0,0.0,0.0,0.00010471975511965978,-0.46091255,-0.14709974999999997,9.7870367,0.0064,0.0,0.0,0.0,0.0063,0.0,0.0,0.0,0.0064
1728111966345324448,22381,1728111966345010835,/map,0.018929978134414754,-0.003095693110977682,0.003837861792845123,0.9998086534076669,0.00022689280275926284,0.0,0.0,0.0,0.00019198621771937625,0.0,0.0,0.0,0.00010471975511965978,6.981317007977319e-05,0.0006108652381980154,0.008883725892651137,0.0005585053606381855,0.0,0.0,0.0,0.0004886921905584122,0.0,0.0,0.0,0.00010471975511965978,-0.45110589999999995,-0.17651969999999997,9.77723005,0.0064,0.0,0.0,0.0,0.0063,0.0,0.0,0.0,0.0064
1728111966355426679,22382,1728111966354932344,/map,0.01891252817864054,-0.003095760093830699,0.0038378077622231686,0.9998089836458331,0.00022689280275926284,0.0,0.0,0.0,0.00019198621771937625,0.0,0.0,0.0,0.00010471975511965978,-0.003193952531149623,0.003560471674068432,0.002530727415391778,0.0005585053606381855,0.0,0.0,0.0,0.0004886921905584122,0.0,0.0,0.0,0.00010471975511965978,-0.38245935,-0.12748644999999997,9.845876599999999,0.0064,0.0,0.0,0.0,0.0063,0.0,0.0,0.0,0.0064
1728111966365190166,22383,1728111966364819415,/map,0.01890377075141436,-0.0030870686000712567,0.003837615988399609,0.9998091768744484,0.00022689280275926284,0.0,0.0,0.0,0.00019198621771937625,0.0,0.0,0.0,0.00010471975511965978,-0.004136430327226561,0.004101523742186674,-0.003944444109507185,0.0005585053606381855,0.0,0.0,0.0,0.0004886921905584122,0.0,0.0,0.0,0.00010471975511965978,-0.38245935,-0.14709974999999997,9.67916355,0.0064,0.0,0.0,0.0,0.0063,0.0,0.0,0.0,0.0064
1728111966374819882,22384,1728111966374538522,/map,0.018912441849901162,-0.0030873651952865863,0.0038201929682772765,0.9998090786970831,0.00022689280275926284,0.0,0.0,0.0,0.00019198621771937625,0.0,0.0,0.0,0.00010471975511965978,0.0013962634015954637,0.00466002910282486,-0.0026005405854715507,0.0005585053606381855,0.0,0.0,0.0,0.0004886921905584122,0.0,0.0,0.0,0.00010471975511965978,-0.36284605,-0.10787314999999999,9.7674234,0.0064,0.0,0.0,0.0,0.0063,0.0,0.0,0.0,0.0064
1728111966385572421,22385,1728111966385271551,/map,0.01893859503969594,-0.0030963207027620873,0.00380298890537055,0.999808621532848,0.00022689280275926284,0.0,0.0,0.0,0.00019198621771937625,0.0,0.0,0.0,0.00010471975511965978,0.005654866776461628,-0.0072082098107365804,-0.004886921905584123,0.0005585053606381855,0.0,0.0,0.0,0.0004886921905584122,0.0,0.0,0.0,0.00010471975511965978,-0.36284605,-0.1569064,9.826263299999999,0.0064,0.0,0.0,0.0,0.0063,0.0,0.0,0.0,0.0064
1728111966395249728,22386,1728111966394963904,/map,0.018929848006512658,-0.0031054092600381264,0.003785676916615522,0.9998088246950317,0.00022689280275926284,0.0,0.0,0.0,0.00019198621771937625,0.0,0.0,0.0,0.00010471975511965978,0.0065275314024587925,0.006649704450098395,-0.0067369709126981125,0.0005585053606381855,0.0,0.0,0.0,0.0004886921905584122,0.0,0.0,0.0,0.00010471975511965978,-0.32361945,-0.08825984999999999,9.7281968,0.0064,0.0,0.0,0.0,0.0063,0.0,0.0,0.0,0.0064
1728111966404948211,22387,1728111966404740779,/map,0.018921005151083508,-0.003088322563442322,0.003767870032962789,0.9998091122725533,0.00022689280275926284,0.0,0.0,0.0,0.00019198621771937625,0.0,0.0,0.0,0.00010471975511965978,0.0002617993877991494,0.006667157742618339,-0.003420845333908886,0.0005585053606381855,0.0,0.0,0.0,0.0004886921905584122,0.0,0.0,0.0,0.00010471975511965978,-0.3334261,-0.0588399,9.9047165,0.0064,0.0,0.0,0.0,0.0063,0.0,0.0,0.0,0.0064
1728111966414921765,22388,1728111966414560231,/map,0.01893839639587859,-0.0030796970884824715,0.003759033890939452,0.9998088428654762,0.00022689280275926284,0.0,0.0,0.0,0.00019198621771937625,0.0,0.0,0.0,0.00010471975511965978,-0.0026878070480712674,-0.006318091892219472,0.0012566370614359172,0.0005585053606381855,0.0,0.0,0.0,0.0004886921905584122,0.0,0.0,0.0,0.00010471975511965978,-0.4118793,-0.0392266,9.9439431,0.0064,0.0,0.0,0.0,0.0063,0.0,0.0,0.0,0.0064
1728111966424714311,22389,1728111966424404558,/map,0.018938337832050966,-0.003071137374707423,0.003750143847029971,0.9998089036893558,0.00022689280275926284,0.0,0.0,0.0,0.00019198621771937625,0.0,0.0,0.0,0.00010471975511965978,0.01038470904936626,0.008656833089891874,0.005166174585903215,0.0005585053606381855,0.0,0.0,0.0,0.0004886921905584122,0.0,0.0,0.0,0.00010471975511965978,-0.4118793,0.0196133,9.77723005,0.0064,0.0,0.0,0.0,0.0063,0.0,0.0,0.0,0.0064
1728111966434423375,22390,1728111966434083790,/map,0.018938337832050966,-0.003071137374707423,0.003750143847029971,0.9998089036893558,0.00022689280275926284,0.0,0.0,0.0,0.00019198621771937625,0.0,0.0,0.0,0.00010471975511965978,-0.004939281783143952,0.0059515727493006645,0.003979350694547071,0.0005585053606381855,0.0,0.0,0.0,0.0004886921905584122,0.0,0.0,0.0,0.00010471975511965978,-0.43149259999999995,0.0196133,9.845876599999999,0.0064,0.0,0.0,0.0,0.0063,0.0,0.0,0.0,0.0064
1728111966444071374,22391,1728111966443738293,/map,0.01894709449739437,-0.0030798296293147627,0.0037503357894236693,0.9998087103246439,0.00022689280275926284,0.0,0.0,0.0,0.00019198621771937625,0.0,0.0,0.0,0.00010471975511965978,0.006003932626860493,-0.004084070449666731,5.235987755982989e-05,0.0005585053606381855,0.0,0.0,0.0,0.0004886921905584122,0.0,0.0,0.0,0.00010471975511965978,-0.48052585,-0.0392266,9.77723005,0.0064,0.0,0.0,0.0,0.0063,0.0,0.0,0.0,0.0064
1728111966453816444,22392,1728111966453430578,/map,0.018955936897932464,-0.003096916016522632,0.0037681430503446398,0.9998084229818532,0.00022689280275926284,0.0,0.0,0.0,0.00019198621771937625,0.0,0.0,0.0,0.00010471975511965978,-0.0007853981633974482,-0.006230825429619756,0.005585053606381855,0.0005585053606381855,0.0,0.0,0.0,0.0004886921905584122,0.0,0.0,0.0,0.00010471975511965978,-0.4216859499999999,-0.1372931,9.738003449999999,0.0064,0.0,0.0,0.0,0.0063,0.0,0.0,0.0,0.0064
1728111966463466351,22393,1728111966463108537,/map,0.018964775004668477,-0.0031051116143283766,0.003794510285566325,0.9998081302342853,0.00022689280275926284,0.0,0.0,0.0,0.00019198621771937625,0.0,0.0,0.0,0.00010471975511965978,0.0035953782591083188,0.0006806784082777885,0.008674286382411817,0.0005585053606381855,0.0,0.0,0.0,0.0004886921905584122,0.0,0.0,0.0,0.00010471975511965978,-0.37265269999999995,-0.10787314999999999,9.747810099999999,0.0064,0.0,0.0,0.0,0.0063,0.0,0.0,0.0,0.0064
1728111966474243932,22394,1728111966473827300,/map,0.01895610926709808,-0.003113704281546434,0.0038033733767099055,0.9998082341719627,0.00022689280275926284,0.0,0.0,0.0,0.00019198621771937625,0.0,0.0,0.0,0.00010471975511965978,-0.002234021442552742,0.0009075712110370514,0.0022165681500327986,0.0005585053606381855,0.0,0.0,0.0,0.0004886921905584122,0.0,0.0,0.0,0.00010471975511965978,-0.4216859499999999,-0.1176798,9.8654899,0.0064,0.0,0.0,0.0,0.0063,0.0,0.0,0.0,0.0064
1728111966483723347,22395,1728111966483522478,/map,0.018947406344892666,-0.0031046817996792883,0.003820631013566459,0.9998083613985144,0.00022689280275926284,0.0,0.0,0.0,0.00019198621771937625,0.0,0.0,0.0,0.00010471975511965978,0.004363323129985824,-0.002234021442552742,0.008517206749732328,0.0005585053606381855,0.0,0.0,0.0,0.0004886921905584122,0.0,0.0,0.0,0.00010471975511965978,-0.40207265,-0.08825984999999999,9.7674234,0.0064,0.0,0.0,0.0,0.0063,0.0,0.0,0.0,0.0064
1728111966493463155,22396,1728111966493195257,/map,0.018930048220924485,-0.0031220332470618234,0.0038296317747234503,0.9998086017349659,0.00022689280275926284,0.0,0.0,0.0,0.00019198621771937625,0.0,0.0,0.0,0.00010471975511965978,-0.002356194490192345,0.007853981633974483,-0.002548180707911721,0.0005585053606381855,0.0,0.0,0.0,0.0004886921905584122,0.0,0.0,0.0,0.00010471975511965978,-0.392266,-0.196133,9.914523149999999,0.0064,0.0,0.0,0.0,0.0063,0.0,0.0,0.0,0.0064
1728111966504248156,22397,1728111966503947586,/map,0.018938745950889336,-0.0031221650989565436,0.003820934044758596,0.9998084698830711,0.00022689280275926284,0.0,0.0,0.0,0.00019198621771937625,0.0,0.0,0.0,0.00010471975511965978,0.0027401669256310974,-0.001186823891356144,0.0033161255787892262,0.0005585053606381855,0.0,0.0,0.0,0.0004886921905584122,0.0,0.0,0.0,0.00010471975511965978,-0.34323275000000003,-0.10787314999999999,9.8851032,0.0064,0.0,0.0,0.0,0.0063,0.0,0.0,0.0,0.0064
1728111966514049772,22398,1728111966513750682,/map,0.018947453298810417,-0.003140077753408825,0.003795116646540318,0.9998083471420065,0.00022689280275926284,0.0,0.0,0.0,0.00019198621771937625,0.0,0.0,0.0,0.00010471975511965978,0.006806784082777886,0.0012915436464758037,-0.00614355896702004,0.0005585053606381855,0.0,0.0,0.0,0.0004886921905584122,0.0,0.0,0.0,0.00010471975511965978,-0.2353596,-0.10787314999999999,9.79684335,0.0064,0.0,0.0,0.0,0.0063,0.0,0.0,0.0,0.0064
1728111966523699501,22399,1728111966523470687,/map,0.018973600811430874,-0.0031401439724334044,0.0037864738826971995,0.9998078838374983,0.00022689280275926284,0.0,0.0,0.0,0.00019198621771937625,0.0,0.0,0.0,0.00010471975511965978,-0.00047123889803846896,-0.003438298626428829,-0.0037524578917878084,0.0005585053606381855,0.0,0.0,0.0,0.0004886921905584122,0.0,0.0,0.0,0.00010471975511965978,-0.34323275000000003,-0.0784532,9.7870367,0.0064,0.0,0.0,0.0,0.0063,0.0,0.0,0.0,0.0064
1728111966533487694,22400,1728111966533199647,/map,0.018964761871862218,-0.0031319485376573113,0.0037601062729708664,0.9998081767550798,0.00022689280275926284,0.0,0.0,0.0,0.00019198621771937625,0.0,0.0,0.0,0.00010471975511965978,0.008569566627292158,-0.002286381320112572,-0.011257373675363426,0.0005585053606381855,0.0,0.0,0.0,0.0004886921905584122,0.0,0.0,0.0,0.00010471975511965978,-0.45110589999999995,-0.0196133,9.7085835,0.0064,0.0,0.0,0.0,0.0063,0.0,0.0,0.0,0.0064
1728111966544157551,22401,1728111966543910722,/map,0.018955950630191516,-0.00312358721711487,0.003742463776906486,0.9998084362033965,0.00022689280275926284,0.0,0.0,0.0,0.00019198621771937625,0.0,0.0,0.0,0.00010471975511965978,-0.002495820830351891,0.007138396640656807,-0.0079412480965742,0.0005585053606381855,0.0,0.0,0.0,0.0004886921905584122,0.0,0.0,0.0,0.00010471975511965978,-0.40207265,-0.00980665,9.747810099999999,0.0064,0.0,0.0,0.0,0.0063,0.0,0.0,0.0,0.0064
1728111966553941686,22402,1728111966553643211,/map,0.018964621084820218,-0.0031238855533935127,0.003725041088422417,0.9998083359099622,0.00022689280275926284,0.0,0.0,0.0,0.00019198621771937625,0.0,0.0,0.0,0.00010471975511965978,-0.00815068760681352,-0.009023352232810684,0.00799360797413403,0.0005585053606381855,0.0,0.0,0.0,0.0004886921905584122,0.0,0.0,0.0,0.00010471975511965978,-0.46091255,0.0588399,9.7674234,0.0064,0.0,0.0,0.0,0.0063,0.0,0.0,0.0,0.0064
1728111966563715072,22403,1728111966563391950,/map,0.01896446831373053,-0.003089151137630835,0.0037156549383031085,0.9998084816579652,0.00022689280275926284,0.0,0.0,0.0,0.00019198621771937625,0.0,0.0,0.0,0.00010471975511965978,-0.007400196028455957,0.004485496177625427,-0.0029146998508305304,0.0005585053606381855,0.0,0.0,0.0,0.0004886921905584122,0.0,0.0,0.0,0.00010471975511965978,-0.45110589999999995,0.0392266,9.845876599999999,0.0064,0.0,0.0,0.0,0.0063,0.0,0.0,0.0,0.0064
1728111966573472689,22404,1728111966573164012,/map,0.018964522226700517,-0.003088820144747383,0.0037331048876305933,0.9998084166552731,0.00022689280275926284,0.0,0.0,0.0,0.00019198621771937625,0.0,0.0,0.0,0.00010471975511965978,0.0023387411976724015,0.009599310885968814,0.0033161255787892262,0.0005585053606381855,0.0,0.0,0.0,0.0004886921905584122,0.0,0.0,0.0,0.00010471975511965978,-0.50013915,-0.0392266,9.875296549999998,0.0064,0.0,0.0,0.0,0.0063,0.0,0.0,0.0,0.0064
1728111966583216340,22405,1728111966582996170,/map,0.01898204814160606,-0.003079367417253476,0.003767893235232987,0.999807982727297,0.00022689280275926284,0.0,0.0,0.0,0.00019198621771937625,0.0,0.0,0.0,0.00010471975511965978,0.001954768762233649,-0.003246312408709453,0.0011519173063162576,0.0005585053606381855,0.0,0.0,0.0,0.0004886921905584122,0.0,0.0,0.0,0.00010471975511965978,-0.4903325,-0.0196133,9.855683249999998,0.0064,0.0,0.0,0.0,0.0063,0.0,0.0,0.0,0.0064
1728111966594111855,22406,1728111966593756373,/map,0.018973408902888816,-0.003087794126010052,0.0037854816749999724,0.9998080542836847,0.00022689280275926284,0.0,0.0,0.0,0.00019198621771937625,0.0,0.0,0.0,0.00010471975511965978,-0.003351032163829113,-0.014695672301792254,-0.001780235837034216,0.0005585053606381855,0.0,0.0,0.0,0.0004886921905584122,0.0,0.0,0.0,0.00010471975511965978,-0.50013915,-0.04903325,9.79684335,0.0064,0.0,0.0,0.0,0.0063,0.0,0.0,0.0,0.0064
1728111966603756656,22407,1728111966603474338,/map,0.018956072008340576,-0.003096088904795676,0.0038117679189193046,0.9998082576138488,0.00022689280275926284,0.0,0.0,0.0,0.00019198621771937625,0.0,0.0,0.0,0.00010471975511965978,0.000767944870877505,0.006230825429619756,-0.0004363323129985824,0.0005585053606381855,0.0,0.0,0.0,0.0004886921905584122,0.0,0.0,0.0,0.00010471975511965978,-0.5295591,-0.18632634999999997,9.7281968,0.0064,0.0,0.0,0.0,0.0063,0.0,0.0,0.0,0.0064
1728111966613437854,22408,1728111966613159066,/map,0.018964851014086914,-0.0030957246421067087,0.0038292448797615187,0.9998080254721925,0.00022689280275926284,0.0,0.0,0.0,0.00019198621771937625,0.0,0.0,0.0,0.00010471975511965978,0.0012740903539558606,0.008325220532012952,0.0023038346126325153,0.0005585053606381855,0.0,0.0,0.0,0.0004886921905584122,0.0,0.0,0.0,0.00010471975511965978,-0.4118793,-0.22555294999999997,9.63993695,0.0064,0.0,0.0,0.0,0.0063,0.0,0.0,0.0,0.0064
1728111966624230897,22409,1728111966623879963,/map,0.018938670663946663,-0.0030869346401216843,0.00383772374508419,0.9998085163992484,0.00022689280275926284,0.0,0.0,0.0,0.00019198621771937625,0.0,0.0,0.0,0.00010471975511965978,-0.002234021442552742,-0.0026878070480712674,-0.0030368728984701333,0.0005585053606381855,0.0,0.0,0.0,0.0004886921905584122,0.0,0.0,0.0,0.00010471975511965978,-0.30400615,-0.17651969999999997,9.934136449999999,0.0064,0.0,0.0,0.0,0.0063,0.0,0.0,0.0,0.0064
1728111966633853572,22410,1728111966633612207,/map,0.018938676094692217,-0.003095824890442335,0.0038291638325676568,0.9998085216282022,0.00022689280275926284,0.0,0.0,0.0,0.00019198621771937625,0.0,0.0,0.0,0.00010471975511965978,-0.00010471975511965978,0.0002617993877991494,-0.006754424205218055,0.0005585053606381855,0.0,0.0,0.0,0.0004886921905584122,0.0,0.0,0.0,0.00010471975511965978,-0.3138128,-0.10787314999999999,9.6889702,0.0064,0.0,0.0,0.0,0.0063,0.0,0.0,0.0,0.0064
1728111966643650097,22411,1728111966643309797,/map,0.018947374052668373,-0.0030959568217150133,0.003820465874591501,0.9998083896969296,0.00022689280275926284,0.0,0.0,0.0,0.00019198621771937625,0.0,0.0,0.0,0.00010471975511965978,-0.001064650843716541,-0.0016755160819145565,-0.003473205211468716,0.0005585053606381855,0.0,0.0,0.0,0.0004886921905584122,0.0,0.0,0.0,0.00010471975511965978,-0.3138128,-0.10787314999999999,9.71839015,0.0064,0.0,0.0,0.0,0.0063,0.0,0.0,0.0,0.0064
1728111966653195294,22412,1728111966652988007,/map,0.018956022933844647,-0.003105310150184013,0.003785758214742497,0.9998083287701409,0.00022689280275926284,0.0,0.0,0.0,0.00019198621771937625,0.0,0.0,0.0,0.00010471975511965978,0.00471238898038469,-0.008429940287132611,-0.006161012259539983,0.0005585053606381855,0.0,0.0,0.0,0.0004886921905584122,0.0,0.0,0.0,0.00010471975511965978,-0.24516625,-0.17651969999999997,9.826263299999999,0.0064,0.0,0.0,0.0,0.0063,0.0,0.0,0.0,0.0064
1728111966663942783,22413,1728111966663697877,/map,0.018955909871520103,-0.003097081438160543,0.003759418075766167,0.9998084558270348,0.00022689280275926284,0.0,0.0,0.0,0.00019198621771937625,0.0,0.0,0.0,0.00010471975511965978,0.0013788101090755204,-0.00736528944341607,-0.0030543261909900766,0.0005585053606381855,0.0,0.0,0.0,0.0004886921905584122,0.0,0.0,0.0,0.00010471975511965978,-0.32361945,-0.17651969999999997,9.69877685,0.0064,0.0,0.0,0.0,0.0063,0.0,0.0,0.0,0.0064
1728111966673651970,22414,1728111966673392261,/map,0.018955801751434926,-0.003097743122353497,0.0037245181745959623,0.9998085864463634,0.00022689280275926284,0.0,0.0,0.0,0.00019198621771937625,0.0,0.0,0.0,0.00010471975511965978,-0.0025132741228718345,-0.01090830782496456,0.000593411945678072,0.0005585053606381855,0.0,0.0,0.0,0.0004886921905584122,0.0,0.0,0.0,0.00010471975511965978,-0.3334261,-0.04903325,9.7281968,0.0064,0.0,0.0,0.0,0.0063,0.0,0.0,0.0,0.0064
1728111966683422131,22415,1728111966683070919,/map,0.018981859998338735,-0.0030805269588432787,0.0037068184340888067,0.9998082110293733,0.00022689280275926284,0.0,0.0,0.0,0.00019198621771937625,0.0,0.0,0.0,0.00010471975511965978,0.001780235837034216,0.004485496177625427,-0.004345869837465881,0.0005585053606381855,0.0,0.0,0.0,0.0004886921905584122,0.0,0.0,0.0,0.00010471975511965978,-0.29419949999999995,0.0,9.71839015,0.0064,0.0,0.0,0.0,0.0063,0.0,0.0,0.0,0.0064
1728111966694141834,22416,1728111966693795886,/map,0.018990495626901905,-0.003063210383726409,0.0036977892971046004,0.9998081336798095,0.00022689280275926284,0.0,0.0,0.0,0.00019198621771937625,0.0,0.0,0.0,0.00010471975511965978,-1.7453292519943296e-05,0.0007504915783575617,-0.0022165681500327986,0.0005585053606381855,0.0,0.0,0.0,0.0004886921905584122,0.0,0.0,0.0,0.00010471975511965978,-0.40207265,-0.04903325,9.77723005,0.0064,0.0,0.0,0.0,0.0063,0.0,0.0,0.0,0.0064
1728111966703686279,22417,1728111966703486169,/map,0.01897304110269284,-0.003054384372265214,0.003706295436080049,0.9998084605671042,0.00022689280275926284,0.0,0.0,0.0,0.00019198621771937625,0.0,0.0,0.0,0.00010471975511965978,-0.0011344640137963143,0.011362093430483085,0.004537856055185257,0.0005585053606381855,0.0,0.0,0.0,0.0004886921905584122,0.0,0.0,0.0,0.00010471975511965978,-0.4903325,-0.06864655,9.914523149999999,0.0064,0.0,0.0,0.0,0.0063,0.0,0.0,0.0,0.0064
1728111966713512106,22418,1728111966713179343,/map,0.018990512892241254,-0.0030452632624656823,0.003723633163666785,0.9998080922596168,0.00022689280275926284,0.0,0.0,0.0,0.00019198621771937625,0.0,0.0,0.0,0.00010471975511965978,0.0012915436464758037,0.0009424777960769379,0.004485496177625427,0.0005585053606381855,0.0,0.0,0.0,0.0004886921905584122,0.0,0.0,0.0,0.00010471975511965978,-0.4707192,-0.0588399,9.7870367,0.0064,0.0,0.0,0.0,0.0063,0.0,0.0,0.0,0.0064
1728111966723150888,22419,1728111966722855828,/map,0.018990597653628503,-0.0030536567896901705,0.0037412486298023678,0.9998079992876925,0.00022689280275926284,0.0,0.0,0.0,0.00019198621771937625,0.0,0.0,0.0,0.00010471975511965978,0.003996803987067015,-0.006928957130417489,0.007696902001294993,0.0005585053606381855,0.0,0.0,0.0,0.0004886921905584122,0.0,0.0,0.0,0.00010471975511965978,-0.5687857,-0.00980665,9.79684335,0.0064,0.0,0.0,0.0,0.0063,0.0,0.0,0.0,0.0064
1728111966733812603,22420,1728111966733580329,/map,0.018999344150098785,-0.0030445675671530205,0.0037585596165944455,0.9998077959086954,0.00022689280275926284,0.0,0.0,0.0,0.00019198621771937625,0.0,0.0,0.0,0.00010471975511965978,-0.0005410520681182421,-0.003735004599267865,0.006702064327658226,0.0005585053606381855,0.0,0.0,0.0,0.0004886921905584122,0.0,0.0,0.0,0.00010471975511965978,-0.5099457999999999,-0.0980665,9.8654899,0.0064,0.0,0.0,0.0,0.0063,0.0,0.0,0.0,0.0064
1728111966743536487,22421,1728111966743271709,/map,0.018999450413980393,-0.0030439043630760207,0.003793459490148941,0.9998076641010969,0.00022689280275926284,0.0,0.0,0.0,0.00019198621771937625,0.0,0.0,0.0,0.00010471975511965978,-0.0008726646259971648,0.006108652381980153,-0.0006457718232379018,0.0005585053606381855,0.0,0.0,0.0,0.0004886921905584122,0.0,0.0,0.0,0.00010471975511965978,-0.46091255,-0.10787314999999999,9.7870367,0.0064,0.0,0.0,0.0,0.0063,0.0,0.0,0.0,0.0064
1728111966753175493,22422,1728111966752923141,/map,0.01897329640357324,-0.0030349475524231546,0.0038106643736680428,0.9998081225685096,0.00022689280275926284,0.0,0.0,0.0,0.00019198621771937625,0.0,0.0,0.0,0.00010471975511965978,-0.0013962634015954637,0.001710422666954443,0.0014660765716752368,0.0005585053606381855,0.0,0.0,0.0,0.0004886921905584122,0.0,0.0,0.0,0.00010471975511965978,-0.44129925,-0.17651969999999997,9.757616749999999,0.0064,0.0,0.0,0.0,0.0063,0.0,0.0,0.0,0.0064
1728111966763860265,22423,1728111966763653999,/map,0.018982041962079234,-0.0030258580249739146,0.0038279753529722378,0.9998079179876801,0.00022689280275926284,0.0,0.0,0.0,0.00019198621771937625,0.0,0.0,0.0,0.00010471975511965978,-0.003961897402027128,-0.0037524578917878084,0.0016755160819145565,0.0005585053606381855,0.0,0.0,0.0,0.0004886921905584122,0.0,0.0,0.0,0.00010471975511965978,-0.43149259999999995,-0.2353596,9.77723005,0.0064,0.0,0.0,0.0,0.0063,0.0,0.0,0.0,0.0064
1728111966773627941,22424,1728111966773341724,/map,0.018955952387485146,-0.003034352374885652,0.003845511299739472,0.999808319938173,0.00022689280275926284,0.0,0.0,0.0,0.00019198621771937625,0.0,0.0,0.0,0.00010471975511965978,0.001710422666954443,0.005270894341022875,0.0029321531433504737,0.0005585053606381855,0.0,0.0,0.0,0.0004886921905584122,0.0,0.0,0.0,0.00010471975511965978,-0.2745862,-0.17651969999999997,9.81645665,0.0064,0.0,0.0,0.0,0.0063,0.0,0.0,0.0,0.0064
1728111966783190932,22425,1728111966782962623,/map,0.018955958361405567,-0.0030432427742552674,0.0038369515427237656,0.9998083256899176,0.00022689280275926284,0.0,0.0,0.0,0.00019198621771937625,0.0,0.0,0.0,0.00010471975511965978,-0.003159045946109736,0.0016580627893946131,0.006876597252857658,0.0005585053606381855,0.0,0.0,0.0,0.0004886921905584122,0.0,0.0,0.0,0.00010471975511965978,-0.32361945,-0.14709974999999997,9.80665,0.0064,0.0,0.0,0.0,0.0063,0.0,0.0,0.0,0.0064
1728111966793944369,22426,1728111966793682681,/map,0.01895593754455091,-0.0030522985956054913,0.0038196668118283517,0.9998083646632172,0.00022689280275926284,0.0,0.0,0.0,0.00019198621771937625,0.0,0.0,0.0,0.00010471975511965978,0.0016406094968746698,0.0011519173063162576,-0.006649704450098395,0.0005585053606381855,0.0,0.0,0.0,0.0004886921905584122,0.0,0.0,0.0,0.00010471975511965978,-0.35303939999999995,-0.12748644999999997,9.7870367,0.0064,0.0,0.0,0.0,0.0063,0.0,0.0,0.0,0.0064
1728111966803626378,22427,1728111966803361394,/map,0.018955830987681818,-0.0030529602807917,0.0037847669138036583,0.9998084973856235,0.00022689280275926284,0.0,0.0,0.0,0.00019198621771937625,0.0,0.0,0.0,0.00010471975511965978,0.0015009831567151233,0.008080874436733746,-0.007278022980816354,0.0005585053606381855,0.0,0.0,0.0,0.0004886921905584122,0.0,0.0,0.0,0.00010471975511965978,-0.3334261,-0.0980665,9.67916355,0.0064,0.0,0.0,0.0,0.0063,0.0,0.0,0.0,0.0064
1728111966813345840,22428,1728111966813016957,/map,0.018947004396056812,-0.0030625450111964334,0.0037412805279496914,0.9998087990523395,0.00022689280275926284,0.0,0.0,0.0,0.00019198621771937625,0.0,0.0,0.0,0.00010471975511965978,-0.001780235837034216,0.0004537856055185257,-0.00853466004225227,0.0005585053606381855,0.0,0.0,0.0,0.0004886921905584122,0.0,0.0,0.0,0.00010471975511965978,-0.32361945,-0.06864655,9.79684335,0.0064,0.0,0.0,0.0,0.0063,0.0,0.0,0.0,0.0064
1728111966824054269,22429,1728111966823701981,/map,0.018955591150277774,-0.0030544490588584124,0.003706242126451633,0.9998087915568609,0.00022689280275926284,0.0,0.0,0.0,0.00019198621771937625,0.0,0.0,0.0,0.00010471975511965978,-0.0007155849933176752,-0.0015009831567151233,-0.0065100781099388496,0.0005585053606381855,0.0,0.0,0.0,0.0004886921905584122,0.0,0.0,0.0,0.00010471975511965978,-0.4216859499999999,-0.0588399,9.747810099999999,0.0064,0.0,0.0,0.0,0.0063,0.0,0.0,0.0,0.0064
1728111966833793352,22430,1728111966833387371,/map,0.01897296113259501,-0.0030548810842729738,0.003680120510523623,0.9998085572550628,0.00022689280275926284,0.0,0.0,0.0,0.00019198621771937625,0.0,0.0,0.0,0.00010471975511965978,-0.0008552113334772215,0.010681415022205296,-0.0079412480965742,0.0005585053606381855,0.0,0.0,0.0,0.0004886921905584122,0.0,0.0,0.0,0.00010471975511965978,-0.37265269999999995,0.04903325,9.845876599999999,0.0064,0.0,0.0,0.0,0.0063,0.0,0.0,0.0,0.0064
1728111966843409170,22431,1728111966843043775,/map,0.01897296547733757,-0.003063771633982683,0.0036715609077656516,0.9998085614380742,0.00022689280275926284,0.0,0.0,0.0,0.00019198621771937625,0.0,0.0,0.0,0.00010471975511965978,0.004607669225265031,-0.005811946409141118,-0.005777039824101231,0.0005585053606381855,0.0,0.0,0.0,0.0004886921905584122,0.0,0.0,0.0,0.00010471975511965978,-0.38245935,0.00980665,9.855683249999998,0.0064,0.0,0.0,0.0,0.0063,0.0,0.0,0.0,0.0064
1728111966853992214,22432,1728111966853763936,/map,0.018990415425733657,-0.0030637075526895193,0.0036716143801089796,0.999808230145078,0.00022689280275926284,0.0,0.0,0.0,0.00019198621771937625,0.0,0.0,0.0,0.00010471975511965978,0.005899212871740834,-0.003909537524467298,-0.0027052603405912107,0.0005585053606381855,0.0,0.0,0.0,0.0004886921905584122,0.0,0.0,0.0,0.00010471975511965978,-0.3334261,0.0588399,9.914523149999999,0.0064,0.0,0.0,0.0,0.0063,0.0,0.0,0.0,0.0064
1728111966863908837,22433,1728111966863442465,/map,0.019007923181004107,-0.003072202568652836,0.0036805584980768294,0.9998078384954104,0.00022689280275926284,0.0,0.0,0.0,0.00019198621771937625,0.0,0.0,0.0,0.00010471975511965978,-0.00012217304763960306,0.0007853981633974482,0.00012217304763960306,0.0005585053606381855,0.0,0.0,0.0,0.0004886921905584122,0.0,0.0,0.0,0.00010471975511965978,-0.392266,-0.02941995,9.7870367,0.0064,0.0,0.0,0.0,0.0063,0.0,0.0,0.0,0.0064
1728111966873399622,22434,1728111966873079807,/map,0.01900803490958717,-0.003080429913507937,0.003706899080825683,0.999807713742812,0.00022689280275926284,0.0,0.0,0.0,0.00019198621771937625,0.0,0.0,0.0,0.00010471975511965978,0.0018849555921538759,0.005026548245743669,0.0023387411976724015,0.0005585053606381855,0.0,0.0,0.0,0.0004886921905584122,0.0,0.0,0.0,0.00010471975511965978,-0.4118793,0.00980665,9.738003449999999,0.0064,0.0,0.0,0.0,0.0063,0.0,0.0,0.0,0.0064
1728111966883124417,22435,1728111966882815867,/map,0.01898193590713521,-0.003071139389647013,0.003741552875554214,0.9998081090860116,0.00022689280275926284,0.0,0.0,0.0,0.00019198621771937625,0.0,0.0,0.0,0.00010471975511965978,-0.001361356816555577,-0.0027401669256310974,0.008709192967451705,0.0005585053606381855,0.0,0.0,0.0,0.0004886921905584122,0.0,0.0,0.0,0.00010471975511965978,-0.37265269999999995,-0.0196133,9.77723005,0.0064,0.0,0.0,0.0,0.0063,0.0,0.0,0.0,0.0064
1728111966893863885,22436,1728111966893540734,/map,0.018973259490886227,-0.00306195034592919,0.003767535622779105,0.9998082043870723,0.00022689280275926284,0.0,0.0,0.0,0.00019198621771937625,0.0,0.0,0.0,0.00010471975511965978,0.002897246558310587,0.010262536001726658,0.006789330790257942,0.0005585053606381855,0.0,0.0,0.0,0.0004886921905584122,0.0,0.0,0.0,0.00010471975511965978,-0.44129925,-0.1372931,9.757616749999999,0.0064,0.0,0.0,0.0,0.0063,0.0,0.0,0.0,0.0064
1728111966903581775,22437,1728111966903226253,/map,0.01896455053116188,-0.0030440367779378296,0.003793353235531352,0.9998083266979106,0.00022689280275926284,0.0,0.0,0.0,0.00019198621771937625,0.0,0.0,0.0,0.00010471975511965978,0.0038746309394274117,-0.008133234314293577,0.005654866776461628,0.0005585053606381855,0.0,0.0,0.0,0.0004886921905584122,0.0,0.0,0.0,0.00010471975511965978,-0.44129925,-0.1176798,9.836069949999999,0.0064,0.0,0.0,0.0,0.0063,0.0,0.0,0.0,0.0064
1728111966913173802,22438,1728111966912867372,/map,0.01893848185273846,-0.003043475010777126,0.003828173450915132,0.9998086898267097,0.00022689280275926284,0.0,0.0,0.0,0.00019198621771937625,0.0,0.0,0.0,0.00010471975511965978,0.006073745796940267,0.0013962634015954637,0.003525565089028546,0.0005585053606381855,0.0,0.0,0.0,0.0004886921905584122,0.0,0.0,0.0,0.00010471975511965978,-0.4707192,-0.16671305,9.845876599999999,0.0064,0.0,0.0,0.0,0.0063,0.0,0.0,0.0,0.0064
1728111966923848539,22439,1728111966923597336,/map,0.01891239256376155,-0.0030519701328718045,0.0038457085686370695,0.9998090904824917,0.00022689280275926284,0.0,0.0,0.0,0.00019198621771937625,0.0,0.0,0.0,0.00010471975511965978,-0.0054105206811824215,-0.00027925268031909274,0.005166174585903215,0.0005585053606381855,0.0,0.0,0.0,0.0004886921905584122,0.0,0.0,0.0,0.00010471975511965978,-0.38245935,-0.2353596,9.875296549999998,0.0064,0.0,0.0,0.0,0.0063,0.0,0.0,0.0,0.0064
1728111966933493824,22440,1728111966933261745,/map,0.01888612607027863,-0.003034785647482305,0.0038365744674003885,0.999809674395326,0.00022689280275926284,0.0,0.0,0.0,0.00019198621771937625,0.0,0.0,0.0,0.00010471975511965978,0.00017453292519943296,0.0017453292519943296,-0.0049741883681838385,0.0005585053606381855,0.0,0.0,0.0,0.0004886921905584122,0.0,0.0,0.0,0.00010471975511965978,-0.43149259999999995,-0.196133,9.747810099999999,0.0064,0.0,0.0,0.0,0.0063,0.0,0.0,0.0,0.0064
1728111966943164909,22441,1728111966942920997,/map,0.018894915965592687,-0.0030522021420475143,0.0038369303178381877,0.9998094539353352,0.00022689280275926284,0.0,0.0,0.0,0.00019198621771937625,0.0,0.0,0.0,0.00010471975511965978,-0.00466002910282486,-0.00010471975511965978,0.008325220532012952,0.0005585053606381855,0.0,0.0,0.0,0.0004886921905584122,0.0,0.0,0.0,0.00010471975511965978,-0.36284605,-0.20593965,9.77723005,0.0064,0.0,0.0,0.0,0.0063,0.0,0.0,0.0,0.0064
1728111966953923797,22442,1728111966953639730,/map,0.01887743354074672,-0.0030435441183383023,0.0038367125151613215,0.9998098114037443,0.00022689280275926284,0.0,0.0,0.0,0.00019198621771937625,0.0,0.0,0.0,0.00010471975511965978,-0.001954768762233649,0.003560471674068432,0.00017453292519943296,0.0005585053606381855,0.0,0.0,0.0,0.0004886921905584122,0.0,0.0,0.0,0.00010471975511965978,-0.43149259999999995,-0.18632634999999997,9.738003449999999,0.0064,0.0,0.0,0.0,0.0063,0.0,0.0,0.0,0.0064
1728111966963594199,22443,1728111966963301669,/map,0.018859833522311055,-0.003017765266858006,0.0038187162755669917,0.9998102905943264,0.00022689280275926284,0.0,0.0,0.0,0.00019198621771937625,0.0,0.0,0.0,0.00010471975511965978,0.0011519173063162576,-0.0023387411976724015,-0.005497787143782138,0.0005585053606381855,0.0,0.0,0.0,0.0004886921905584122,0.0,0.0,0.0,0.00010471975511965978,-0.34323275000000003,-0.1372931,9.7870367,0.0064,0.0,0.0,0.0,0.0063,0.0,0.0,0.0,0.0064
1728111966973268059,22444,1728111966972950596,/map,0.018859754510937965,-0.0030182590151107917,0.00379254130206204,0.9998103902254551,0.00022689280275926284,0.0,0.0,0.0,0.00019198621771937625,0.0,0.0,0.0,0.00010471975511965978,0.002234021442552742,-0.001064650843716541,-0.0023212879051524586,0.0005585053606381855,0.0,0.0,0.0,0.0004886921905584122,0.0,0.0,0.0,0.00010471975511965978,-0.4216859499999999,-0.1372931,9.7281968,0.0064,0.0,0.0,0.0,0.0063,0.0,0.0,0.0,0.0064
1728111966983857704,22445,1728111966983659360,/map,0.018885760561973903,-0.0030013689821705037,0.0037573911456726798,0.9998100828877488,0.00022689280275926284,0.0,0.0,0.0,0.00019198621771937625,0.0,0.0,0.0,0.00010471975511965978,0.0060911990894602095,0.0005585053606381855,-0.018360863730980347,0.0005585053606381855,0.0,0.0,0.0,0.0004886921905584122,0.0,0.0,0.0,0.00010471975511965978,-0.44129925,-0.0980665,9.81645665,0.0064,0.0,0.0,0.0,0.0063,0.0,0.0,0.0,0.0064
1728111966993647848,22446,1728111966993327859,/map,0.018903158151432228,-0.0030016333256725207,0.0037399935562143554,0.9998098185442468,0.00022689280275926284,0.0,0.0,0.0,0.00019198621771937625,0.0,0.0,0.0,0.00010471975511965978,-0.0002443460952792061,0.005235987755982988,0.012531464029319286,0.0005585053606381855,0.0,0.0,0.0,0.0004886921905584122,0.0,0.0,0.0,0.00010471975511965978,-0.35303939999999995,-0.16671305,9.7674234,0.0064,0.0,0.0,0.0,0.0063,0.0,0.0,0.0,0.0064
1728111967003291034,22447,1728111967002944239,/map,0.018911830746630744,-0.00300193076212876,0.0037225697793478465,0.9998097186683815,0.00022689280275926284,0.0,0.0,0.0,0.00019198621771937625,0.0,0.0,0.0,0.00010471975511965978,0.012374384396639796,0.002530727415391778,-0.002129301687433082,0.0005585053606381855,0.0,0.0,0.0,0.0004886921905584122,0.0,0.0,0.0,0.00010471975511965978,-0.43149259999999995,-0.1176798,9.7870367,0.0064,0.0,0.0,0.0,0.0063,0.0,0.0,0.0,0.0064
1728111967012912888,22448,1728111967012701257,/map,0.01892925451829198,-0.003002030979594711,0.003713897189354608,0.9998094208903245,0.00022689280275926284,0.0,0.0,0.0,0.00019198621771937625,0.0,0.0,0.0,0.00010471975511965978,0.002076941809873252,0.005113814708343385,-0.005969026041820607,0.0005585053606381855,0.0,0.0,0.0,0.0004886921905584122,0.0,0.0,0.0,0.00010471975511965978,-0.46091255,-0.1176798,9.826263299999999,0.0064,0.0,0.0,0.0,0.0063,0.0,0.0,0.0,0.0064
1728111967023127614,22449,1728111967022849603,/map,0.018929228319908786,-0.003002196168388546,0.0037051722060698076,0.9998094532621217,0.00022689280275926284,0.0,0.0,0.0,0.00019198621771937625,0.0,0.0,0.0,0.00010471975511965978,-0.0004363323129985824,3.490658503988659e-05,-0.001064650843716541,0.0005585053606381855,0.0,0.0,0.0,0.0004886921905584122,0.0,0.0,0.0,0.00010471975511965978,-0.4118793,-0.00980665,9.738003449999999,0.0064,0.0,0.0,0.0,0.0063,0.0,0.0,0.0,0.0064
1728111967033050400,22450,1728111967032838822,/map,0.018937958345449094,-0.0030110540850962052,0.0036966384922961478,0.9998092928908292,0.00022689280275926284,0.0,0.0,0.0,0.00019198621771937625,0.0,0.0,0.0,0.00010471975511965978,-0.002722713633111154,-0.007330382858376184,-0.004276056667386108,0.0005585053606381855,0.0,0.0,0.0,0.0004886921905584122,0.0,0.0,0.0,0.00010471975511965978,-0.38245935,-0.00980665,9.836069949999999,0.0064,0.0,0.0,0.0,0.0063,0.0,0.0,0.0,0.0064
1728111967043921886,22451,1728111967043724575,/map,0.018946714567450135,-0.0030197468098990482,0.0036968299138061523,0.9998091000710547,0.00022689280275926284,0.0,0.0,0.0,0.00019198621771937625,0.0,0.0,0.0,0.00010471975511965978,0.006457718232379019,0.003543018381548489,-0.0006632251157578452,0.0005585053606381855,0.0,0.0,0.0,0.0004886921905584122,0.0,0.0,0.0,0.00010471975511965978,-0.4118793,-0.0,9.80665,0.0064,0.0,0.0,0.0,0.0063,0.0,0.0,0.0,0.0064
1728111967054172072,22452,1728111967053880998,/map,0.018946740918990904,-0.003019581468508248,0.0037055548940090974,0.9998090677720578,0.00022689280275926284,0.0,0.0,0.0,0.00019198621771937625,0.0,0.0,0.0,0.00010471975511965978,0.0057421332390613445,-0.001361356816555577,0.002076941809873252,0.0005585053606381855,0.0,0.0,0.0,0.0004886921905584122,0.0,0.0,0.0,0.00010471975511965978,-0.34323275000000003,-0.0196133,9.826263299999999,0.0064,0.0,0.0,0.0,0.0063,0.0,0.0,0.0,0.0064
1728111967064361780,22453,1728111967064022346,/map,0.018964222191139305,-0.003028241774702236,0.0037057728920875934,0.9998087093417978,0.00022689280275926284,0.0,0.0,0.0,0.00019198621771937625,0.0,0.0,0.0,0.00010471975511965978,0.000296705972839036,0.0073129295658562405,0.0038571776469074684,0.0005585053606381855,0.0,0.0,0.0,0.0004886921905584122,0.0,0.0,0.0,0.00010471975511965978,-0.36284605,-0.0196133,9.7870367,0.0064,0.0,0.0,0.0,0.0063,0.0,0.0,0.0,0.0064
1728111967074366199,22454,1728111967074080654,/map,0.018972978480576594,-0.0030369344147317557,0.003705964691203076,0.9998085161382874,0.00022689280275926284,0.0,0.0,0.0,0.00019198621771937625,0.0,0.0,0.0,0.00010471975511965978,0.0048520153205442364,0.008517206749732328,-0.0009599310885968813,0.0005585053606381855,0.0,0.0,0.0,0.0004886921905584122,0.0,0.0,0.0,0.00010471975511965978,-0.48052585,-0.02941995,9.80665,0.0064,0.0,0.0,0.0,0.0063,0.0,0.0,0.0,0.0064
1728111967084197028,22455,1728111967083929180,/map,0.01897294716735116,-0.0030282094356177806,0.003705799318341245,0.9998085438096692,0.00022689280275926284,0.0,0.0,0.0,0.00019198621771937625,0.0,0.0,0.0,0.00010471975511965978,-0.008028514559173916,0.001413716694115407,0.005270894341022875,0.0005585053606381855,0.0,0.0,0.0,0.0004886921905584122,0.0,0.0,0.0,0.00010471975511965978,-0.35303939999999995,-0.0784532,9.757616749999999,0.0064,0.0,0.0,0.0,0.0063,0.0,0.0,0.0,0.0064
1728111967093912554,22456,1728111967093568504,/map,0.01897288453656567,-0.003010759476698662,0.003705468571770958,0.9998085989240137,0.00022689280275926284,0.0,0.0,0.0,0.00019198621771937625,0.0,0.0,0.0,0.00010471975511965978,-0.0041887902047863905,0.0003839724354387525,0.001954768762233649,0.0005585053606381855,0.0,0.0,0.0,0.0004886921905584122,0.0,0.0,0.0,0.00010471975511965978,-0.48052585,-0.0588399,9.855683249999998,0.0064,0.0,0.0,0.0,0.0063,0.0,0.0,0.0,0.0064
1728111967103569768,22457,1728111967103186350,/map,0.018955434581735844,-0.0030108241488669995,0.003705416023540731,0.9998089299110379,0.00022689280275926284,0.0,0.0,0.0,0.00019198621771937625,0.0,0.0,0.0,0.00010471975511965978,-0.0045029494701453706,0.0011693705988362008,-0.005829399701661061,0.0005585053606381855,0.0,0.0,0.0,0.0004886921905584122,0.0,0.0,0.0,0.00010471975511965978,-0.4118793,-0.0784532,9.77723005,0.0064,0.0,0.0,0.0,0.0063,0.0,0.0,0.0,0.0064
1728111967112989233,22458,1728111967112779830,/map,0.018955465898331317,-0.003019549131326515,0.003705581244687329,0.9998089023924822,0.00022689280275926284,0.0,0.0,0.0,0.00019198621771937625,0.0,0.0,0.0,0.00010471975511965978,0.0015009831567151233,0.0048520153205442364,-0.0022165681500327986,0.0005585053606381855,0.0,0.0,0.0,0.0004886921905584122,0.0,0.0,0.0,0.00010471975511965978,-0.4118793,-0.0588399,9.81645665,0.0064,0.0,0.0,0.0,0.0063,0.0,0.0,0.0,0.0064
1728111967123618864,22459,1728111967123481588,/map,0.018946615642991202,-0.0029846815315311293,0.0037048943122890347,0.999809177388349,0.00022689280275926284,0.0,0.0,0.0,0.00019198621771937625,0.0,0.0,0.0,0.00010471975511965978,-0.0013788101090755204,0.012967796342317869,-0.0063006385996995295,0.0005585053606381855,0.0,0.0,0.0,0.0004886921905584122,0.0,0.0,0.0,0.00010471975511965978,-0.5197524499999999,-0.0392266,9.80665,0.0064,0.0,0.0,0.0,0.0063,0.0,0.0,0.0,0.0064
1728111967133403280,22460,1728111967133157765,/map,0.018937911276326748,-0.002975658348012566,0.0037221531607244665,0.9998093050925931,0.00022689280275926284,0.0,0.0,0.0,0.00019198621771937625,0.0,0.0,0.0,0.00010471975511965978,-0.00010471975511965978,0.007696902001294993,-0.0023038346126325153,0.0005585053606381855,0.0,0.0,0.0,0.0004886921905584122,0.0,0.0,0.0,0.00010471975511965978,-0.45110589999999995,-0.1176798,9.845876599999999,0.0064,0.0,0.0,0.0,0.0063,0.0,0.0,0.0,0.0064
1728111967143091318,22461,1728111967142809828,/map,0.018929243812054963,-0.0029842506282593143,0.0037310171696411224,0.9998094105817225,0.00022689280275926284,0.0,0.0,0.0,0.00019198621771937625,0.0,0.0,0.0,0.00010471975511965978,-0.0064228116473391324,-0.007801621756414653,0.0030892327760299633,0.0005585053606381855,0.0,0.0,0.0,0.0004886921905584122,0.0,0.0,0.0,0.00010471975511965978,-0.4707192,-0.0980665,9.79684335,0.0064,0.0,0.0,0.0,0.0063,0.0,0.0,0.0,0.0064
1728111967153770378,22462,1728111967153514535,/map,0.018920461309177284,-0.0029757233113872623,0.0037221012251219656,0.9998096354692186,0.00022689280275926284,0.0,0.0,0.0,0.00019198621771937625,0.0,0.0,0.0,0.00010471975511965978,-0.00778416846389471,-0.005864306286700947,-0.0006283185307179586,0.0005585053606381855,0.0,0.0,0.0,0.0004886921905584122,0.0,0.0,0.0,0.00010471975511965978,-0.4216859499999999,-0.0784532,9.79684335,0.0064,0.0,0.0,0.0,0.0063,0.0,0.0,0.0,0.0064
1728111967163511847,22463,1728111967163151634,/map,0.01891171035435264,-0.0029759208286544363,0.0037133502702973234,0.9998098329864858,0.00022689280275926284,0.0,0.0,0.0,0.00019198621771937625,0.0,0.0,0.0,0.00010471975511965978,-0.00471238898038469,-0.008866272600131194,-0.011920598791121272,0.0005585053606381855,0.0,0.0,0.0,0.0004886921905584122,0.0,0.0,0.0,0.00010471975511965978,-0.5295591,-0.10787314999999999,9.77723005,0.0064,0.0,0.0,0.0,0.0063,0.0,0.0,0.0,0.0064
1728111967173102359,22464,1728111967172789976,/map,0.01891162173238951,-0.002958635882521184,0.003704295599418205,0.9998099195503503,0.00022689280275926284,0.0,0.0,0.0,0.00019198621771937625,0.0,0.0,0.0,0.00010471975511965978,0.001780235837034216,0.005358160803622592,-0.007958701389094143,0.0005585053606381855,0.0,0.0,0.0,0.0004886921905584122,0.0,0.0,0.0,0.00010471975511965978,-0.40207265,-0.06864655,9.81645665,0.0064,0.0,0.0,0.0,0.0063,0.0,0.0,0.0,0.0064
1728111967183890713,22465,1728111967183520953,/map,0.01890290217473742,-0.0029675581600037853,0.0036957095574687996,0.9998100897764566,0.00022689280275926284,0.0,0.0,0.0,0.00019198621771937625,0.0,0.0,0.0,0.00010471975511965978,-0.003473205211468716,0.005061454830783556,0.0038746309394274117,0.0005585053606381855,0.0,0.0,0.0,0.0004886921905584122,0.0,0.0,0.0,0.00010471975511965978,-0.40207265,-0.0980665,9.836069949999999,0.0064,0.0,0.0,0.0,0.0063,0.0,0.0,0.0,0.0064
1728111967193566428,22466,1728111967193189828,/map,0.018902959396082008,-0.002976118193188606,0.003704599312026687,0.99981003035102,0.00022689280275926284,0.0,0.0,0.0,0.00019198621771937625,0.0,0.0,0.0,0.00010471975511965978,0.006981317007977318,0.0027576202181510408,0.0033859387488689996,0.0005585053606381855,0.0,0.0,0.0,0.0004886921905584122,0.0,0.0,0.0,0.00010471975511965978,-0.3138128,-0.04903325,9.81645665,0.0064,0.0,0.0,0.0,0.0063,0.0,0.0,0.0,0.0064
1728111967203094590,22467,1728111967202819228,/map,0.018894328374679553,-0.003002325501468176,0.0037050674073966505,0.999810113407721,0.00022689280275926284,0.0,0.0,0.0,0.00019198621771937625,0.0,0.0,0.0,0.00010471975511965978,-0.002181661564992912,0.000296705972839036,0.003420845333908886,0.0005585053606381855,0.0,0.0,0.0,0.0004886921905584122,0.0,0.0,0.0,0.00010471975511965978,-0.35303939999999995,-0.0392266,9.80665,0.0064,0.0,0.0,0.0,0.0063,0.0,0.0,0.0,0.0064
1728111967212886729,22468,1728111967212614098,/map,0.01889443851703746,-0.003010555840021603,0.003731407061415671,0.999809988621839,0.00022689280275926284,0.0,0.0,0.0,0.00019198621771937625,0.0,0.0,0.0,0.00010471975511965978,-0.0010122909661567112,-0.0033335788713091696,-0.00012217304763960306,0.0005585053606381855,0.0,0.0,0.0,0.0004886921905584122,0.0,0.0,0.0,0.00010471975511965978,-0.40207265,-0.1372931,9.757616749999999,0.0064,0.0,0.0,0.0,0.0063,0.0,0.0,0.0,0.0064
1728111967223692790,22469,1728111967223340301,/map,0.01889457544500557,-0.003018621288469344,0.003766471698013075,0.9998098302353392,0.00022689280275926284,0.0,0.0,0.0,0.00019198621771937625,0.0,0.0,0.0,0.00010471975511965978,-0.003141592653589793,-0.004886921905584123,0.0014835298641951802,0.0005585053606381855,0.0,0.0,0.0,0.0004886921905584122,0.0,0.0,0.0,0.00010471975511965978,-0.44129925,-0.0980665,9.757616749999999,0.0064,0.0,0.0,0.0,0.0063,0.0,0.0,0.0,0.0064
1728111967233355038,22470,1728111967233021795,/map,0.018894686544087658,-0.0030268516181464326,0.0037928113423431604,0.999809703679557,0.00022689280275926284,0.0,0.0,0.0,0.00019198621771937625,0.0,0.0,0.0,0.00010471975511965978,-0.0006981317007977319,0.0027401669256310974,0.00010471975511965978,0.0005585053606381855,0.0,0.0,0.0,0.0004886921905584122,0.0,0.0,0.0,0.00010471975511965978,-0.45110589999999995,-0.1176798,9.69877685,0.0064,0.0,0.0,0.0,0.0063,0.0,0.0,0.0,0.0064
1728111967242893068,22471,1728111967242637211,/map,0.018894628127008116,-0.0030182915154573164,0.0037839216708699347,0.9998097643457272,0.00022689280275926284,0.0,0.0,0.0,0.00019198621771937625,0.0,0.0,0.0,0.00010471975511965978,0.008325220532012952,0.01043706892692609,-0.004939281783143952,0.0005585053606381855,0.0,0.0,0.0,0.0004886921905584122,0.0,0.0,0.0,0.00010471975511965978,-0.43149259999999995,-0.17651969999999997,9.826263299999999,0.0064,0.0,0.0,0.0,0.0063,0.0,0.0,0.0,0.0064
1728111967253672609,22472,1728111967253355957,/map,0.018903353112429265,-0.003018258494396492,0.003783948010288218,0.9998095994209214,0.00022689280275926284,0.0,0.0,0.0,0.00019198621771937625,0.0,0.0,0.0,0.00010471975511965978,-0.004782202150464463,-0.002949606435870417,-0.0052010811709431014,0.0005585053606381855,0.0,0.0,0.0,0.0004886921905584122,0.0,0.0,0.0,0.00010471975511965978,-0.4707192,-0.20593965,9.8654899,0.0064,0.0,0.0,0.0,0.0063,0.0,0.0,0.0,0.0064
1728111967263393203,22473,1728111967263050316,/map,0.018911999072971666,-0.003018720589118193,0.0037577993983398832,0.9998095331415633,0.00022689280275926284,0.0,0.0,0.0,0.00019198621771937625,0.0,0.0,0.0,0.00010471975511965978,0.0043982297150257105,-0.004956735075663896,-0.009948376736367677,0.0005585053606381855,0.0,0.0,0.0,0.0004886921905584122,0.0,0.0,0.0,0.00010471975511965978,-0.45110589999999995,-0.12748644999999997,9.757616749999999,0.0064,0.0,0.0,0.0,0.0063,0.0,0.0,0.0,0.0064
1728111967273021760,22474,1728111967272664020,/map,0.018903168702240437,-0.0030194132288945386,0.0037228731103558887,0.999809828703725,0.00022689280275926284,0.0,0.0,0.0,0.00019198621771937625,0.0,0.0,0.0,0.00010471975511965978,-0.004886921905584123,0.003159045946109736,-0.0035779249665883754,0.0005585053606381855,0.0,0.0,0.0,0.0004886921905584122,0.0,0.0,0.0,0.00010471975511965978,-0.3334261,-0.0980665,9.8851032,0.0064,0.0,0.0,0.0,0.0063,0.0,0.0,0.0,0.0064
1728111967283808627,22475,1728111967283421708,/map,0.018929202120084053,-0.0030023613569537507,0.0036964472225028415,0.9998094855577789,0.00022689280275926284,0.0,0.0,0.0,0.00019198621771937625,0.0,0.0,0.0,0.00010471975511965978,0.0028448866807507574,0.0060911990894602095,-0.0011519173063162576,0.0005585053606381855,0.0,0.0,0.0,0.0004886921905584122,0.0,0.0,0.0,0.00010471975511965978,-0.3138128,-0.0,9.69877685,0.0064,0.0,0.0,0.0,0.0063,0.0,0.0,0.0,0.0064
1728111967293387589,22476,1728111967293108847,/map,0.018946547273142784,-0.0030029582024147837,0.003661599697492239,0.9998092834516573,0.00022689280275926284,0.0,0.0,0.0,0.00019198621771937625,0.0,0.0,0.0,0.00010471975511965978,0.0018151424220741027,0.005218534463463045,-0.011030480872604163,0.0005585053606381855,0.0,0.0,0.0,0.0004886921905584122,0.0,0.0,0.0,0.00010471975511965978,-0.29419949999999995,0.08825984999999999,9.7281968,0.0064,0.0,0.0,0.0,0.0063,0.0,0.0,0.0,0.0064
1728111967302926285,22477,1728111967302717483,/map,0.018981368568948758,-0.003003327318740342,0.003635529588523388,0.9998087170038462,0.00022689280275926284,0.0,0.0,0.0,0.00019198621771937625,0.0,0.0,0.0,0.00010471975511965978,0.00301941960595019,0.0048345620280242935,-0.007609635538695277,0.0005585053606381855,0.0,0.0,0.0,0.0004886921905584122,0.0,0.0,0.0,0.00010471975511965978,-0.25497289999999995,0.02941995,9.7870367,0.0064,0.0,0.0,0.0,0.0063,0.0,0.0,0.0,0.0064
1728111967313707454,22478,1728111967313439697,/map,0.01899887551161977,-0.0030118230476067136,0.003644472583693866,0.9998083263660142,0.00022689280275926284,0.0,0.0,0.0,0.00019198621771937625,0.0,0.0,0.0,0.00010471975511965978,-0.0009773843811168245,0.004956735075663896,0.006126105674500096,0.0005585053606381855,0.0,0.0,0.0,0.0004886921905584122,0.0,0.0,0.0,0.00010471975511965978,-0.35303939999999995,0.0588399,9.7870367,0.0064,0.0,0.0,0.0,0.0063,0.0,0.0,0.0,0.0064
1728111967323405310,22479,1728111967323097452,/map,0.01899887551161977,-0.0030118230476067136,0.003644472583693866,0.9998083263660142,0.00022689280275926284,0.0,0.0,0.0,0.00019198621771937625,0.0,0.0,0.0,0.00010471975511965978,-0.0021642082724729686,0.00767944870877505,-0.012356931104119853,0.0005585053606381855,0.0,0.0,0.0,0.0004886921905584122,0.0,0.0,0.0,0.00010471975511965978,-0.3138128,0.00980665,9.826263299999999,0.0064,0.0,0.0,0.0,0.0063,0.0,0.0,0.0,0.0064
1728111967333168867,22480,1728111967332791152,/map,0.01899887551161977,-0.0030118230476067136,0.003644472583693866,0.9998083263660142,0.00022689280275926284,0.0,0.0,0.0,0.00019198621771937625,0.0,0.0,0.0,0.00010471975511965978,-0.008342673824532895,-0.006754424205218055,-0.0002617993877991494,0.0005585053606381855,0.0,0.0,0.0,0.0004886921905584122,0.0,0.0,0.0,0.00010471975511965978,-0.46091255,-0.04903325,9.81645665,0.0064,0.0,0.0,0.0,0.0063,0.0,0.0,0.0,0.0064
1728111967343725733,22481,1728111967343496612,/map,0.018981416251302223,-0.002994105406696906,0.003661539066952936,0.999808648843152,0.00022689280275926284,0.0,0.0,0.0,0.00019198621771937625,0.0,0.0,0.0,0.00010471975511965978,-0.006161012259539983,-0.008552113334772215,0.0036477381366681488,0.0005585053606381855,0.0,0.0,0.0,0.0004886921905584122,0.0,0.0,0.0,0.00010471975511965978,-0.55897905,-0.04903325,9.8654899,0.0064,0.0,0.0,0.0,0.0063,0.0,0.0,0.0,0.0064
1728111967353417021,22482,1728111967353173251,/map,0.018972748416674262,-0.003002696772580106,0.003670403290972323,0.9998087550973394,0.00022689280275926284,0.0,0.0,0.0,0.00019198621771937625,0.0,0.0,0.0,0.00010471975511965978,0.004921828490624009,0.004904375198104067,0.0018151424220741027,0.0005585053606381855,0.0,0.0,0.0,0.0004886921905584122,0.0,0.0,0.0,0.00010471975511965978,-0.4903325,-0.06864655,9.80665,0.0064,0.0,0.0,0.0,0.0063,0.0,0.0,0.0,0.0064
1728111967363157347,22483,1728111967362972391,/map,0.018964044676270275,-0.0029936728356506114,0.0036876617460274556,0.999808883778953,0.00022689280275926284,0.0,0.0,0.0,0.00019198621771937625,0.0,0.0,0.0,0.00010471975511965978,-0.0006108652381980154,0.0023212879051524586,0.0032114058236695662,0.0005585053606381855,0.0,0.0,0.0,0.0004886921905584122,0.0,0.0,0.0,0.00010471975511965978,-0.46091255,-0.0392266,9.757616749999999,0.0064,0.0,0.0,0.0,0.0063,0.0,0.0,0.0,0.0064
1728111967373002750,22484,1728111967372826482,/map,0.018964102043375942,-0.0030022323247753165,0.0036965520224328426,0.9998088241948568,0.00022689280275926284,0.0,0.0,0.0,0.00019198621771937625,0.0,0.0,0.0,0.00010471975511965978,-0.004939281783143952,0.003682644721708035,-0.0045204027626653135,0.0005585053606381855,0.0,0.0,0.0,0.0004886921905584122,0.0,0.0,0.0,0.00010471975511965978,-0.40207265,-0.10787314999999999,9.845876599999999,0.0064,0.0,0.0,0.0,0.0063,0.0,0.0,0.0,0.0064
1728111967383140189,22485,1728111967382797779,/map,0.01895540326369683,-0.003002099166178197,0.00370525080211195,0.999808957353454,0.00022689280275926284,0.0,0.0,0.0,0.00019198621771937625,0.0,0.0,0.0,0.00010471975511965978,-0.0008028514559173916,-0.006352998477259359,-0.0008726646259971648,0.0005585053606381855,0.0,0.0,0.0,0.0004886921905584122,0.0,0.0,0.0,0.00010471975511965978,-0.40207265,-0.0784532,9.79684335,0.0064,0.0,0.0,0.0,0.0063,0.0,0.0,0.0,0.0064
1728111967392788214,22486,1728111967392565512,/map,0.018955487127643358,-0.003010493313663844,0.0037228659806932667,0.9998088650870485,0.00022689280275926284,0.0,0.0,0.0,0.00019198621771937625,0.0,0.0,0.0,0.00010471975511965978,0.0032114058236695662,0.0023038346126325153,0.0026354471705114374,0.0005585053606381855,0.0,0.0,0.0,0.0004886921905584122,0.0,0.0,0.0,0.00010471975511965978,-0.3138128,-0.08825984999999999,9.826263299999999,0.0064,0.0,0.0,0.0,0.0063,0.0,0.0,0.0,0.0064
1728111967403601063,22487,1728111967403299399,/map,0.01896432260945026,-0.0030186893221138076,0.0037492324774164257,0.9998085742973861,0.00022689280275926284,0.0,0.0,0.0,0.00019198621771937625,0.0,0.0,0.0,0.00010471975511965978,-0.001954768762233649,0.0013264502315156904,0.008813912722571364,0.0005585053606381855,0.0,0.0,0.0,0.0004886921905584122,0.0,0.0,0.0,0.00010471975511965978,-0.3334261,-0.08825984999999999,9.8851032,0.0064,0.0,0.0,0.0,0.0063,0.0,0.0,0.0,0.0064
1728111967413230442,22488,1728111967412981821,/map,0.01896449739980909,-0.003044367771322109,0.0037759032877647436,0.9998083927521348,0.00022689280275926284,0.0,0.0,0.0,0.00019198621771937625,0.0,0.0,0.0,0.00010471975511965978,0.008918632477691025,0.007347836150896127,0.006754424205218055,0.0005585053606381855,0.0,0.0,0.0,0.0004886921905584122,0.0,0.0,0.0,0.00010471975511965978,-0.32361945,-0.196133,9.738003449999999,0.0064,0.0,0.0,0.0,0.0063,0.0,0.0,0.0,0.0064
1728111967422966846,22489,1728111967422631746,/map,0.018955975352166372,-0.0030699139729707435,0.0038112722710925756,0.999808342048776,0.00022689280275926284,0.0,0.0,0.0,0.00019198621771937625,0.0,0.0,0.0,0.00010471975511965978,0.0053058009260627615,-0.006440264939859076,0.002775073510670984,0.0005585053606381855,0.0,0.0,0.0,0.0004886921905584122,0.0,0.0,0.0,0.00010471975511965978,-0.3334261,-0.14709974999999997,9.77723005,0.0064,0.0,0.0,0.0,0.0063,0.0,0.0,0.0,0.0064
1728111967433623894,22490,1728111967433353867,/map,0.018956055715830124,-0.0030694177056445238,0.0038374471909699685,0.9998082419272724,0.00022689280275926284,0.0,0.0,0.0,0.00019198621771937625,0.0,0.0,0.0,0.00010471975511965978,-0.003473205211468716,-0.00307177948351002,0.0012217304763960308,0.0005585053606381855,0.0,0.0,0.0,0.0004886921905584122,0.0,0.0,0.0,0.00010471975511965978,-0.4216859499999999,-0.28439285,9.738003449999999,0.0064,0.0,0.0,0.0,0.0063,0.0,0.0,0.0,0.0064
1728111967443278140,22491,1728111967443019688,/map,0.018929907576650116,-0.003069352974234889,0.003846091809523927,0.9998087043276087,0.00022689280275926284,0.0,0.0,0.0,0.00019198621771937625,0.0,0.0,0.0,0.00010471975511965978,-0.0003839724354387525,-0.00027925268031909274,-0.003996803987067015,0.0005585053606381855,0.0,0.0,0.0,0.0004886921905584122,0.0,0.0,0.0,0.00010471975511965978,-0.4707192,-0.34323275000000003,9.855683249999998,0.0064,0.0,0.0,0.0,0.0063,0.0,0.0,0.0,0.0064
1728111967453022085,22492,1728111967452670442,/map,0.018947271581381306,-0.003060891561486719,0.003828530290762579,0.9998084687570329,0.00022689280275926284,0.0,0.0,0.0,0.00019198621771937625,0.0,0.0,0.0,0.00010471975511965978,0.0004886921905584122,0.0037000980142279784,0.0010821041362364843,0.0005585053606381855,0.0,0.0,0.0,0.0004886921905584122,0.0,0.0,0.0,0.00010471975511965978,-0.50013915,-0.30400615,9.67916355,0.0064,0.0,0.0,0.0,0.0063,0.0,0.0,0.0,0.0064
1728111967463748205,22493,1728111967463400117,/map,0.018955830987681818,-0.0030529602807917,0.0037847669138036583,0.9998084973856235,0.00022689280275926284,0.0,0.0,0.0,0.00019198621771937625,0.0,0.0,0.0,0.00010471975511965978,0.004921828490624009,-0.0015009831567151233,-0.008709192967451705,0.0005585053606381855,0.0,0.0,0.0,0.0004886921905584122,0.0,0.0,0.0,0.00010471975511965978,-0.50013915,-0.22555294999999997,9.581097049999999,0.0064,0.0,0.0,0.0,0.0063,0.0,0.0,0.0,0.0064
1728111967473399935,22494,1728111967473065464,/map,0.01895564445758358,-0.003054118220915976,0.0037236920811893064,0.9998087267184532,0.00022689280275926284,0.0,0.0,0.0,0.00019198621771937625,0.0,0.0,0.0,0.00010471975511965978,-0.006981317007977318,0.003490658503988659,-0.009232791743050004,0.0005585053606381855,0.0,0.0,0.0,0.0004886921905584122,0.0,0.0,0.0,0.00010471975511965978,-0.46091255,-0.0980665,9.8654899,0.0064,0.0,0.0,0.0,0.0063,0.0,0.0,0.0,0.0064
1728111967482976567,22495,1728111967482704080,/map,0.018990238536119322,-0.003029139087473445,0.0036535023293552235,0.9998084051844429,0.00022689280275926284,0.0,0.0,0.0,0.00019198621771937625,0.0,0.0,0.0,0.00010471975511965978,0.013142329267517301,-0.0022514747350726853,-0.006614797865058509,0.0005585053606381855,0.0,0.0,0.0,0.0004886921905584122,0.0,0.0,0.0,0.00010471975511965978,-0.34323275000000003,-0.00980665,9.649743599999999,0.0064,0.0,0.0,0.0,0.0063,0.0,0.0,0.0,0.0064
1728111967493744906,22496,1728111967493422724,/map,0.019051245888601565,-0.0030560883296395854,0.0036018357545170667,0.999807350009696,0.00022689280275926284,0.0,0.0,0.0,0.00019198621771937625,0.0,0.0,0.0,0.00010471975511965978,-0.0009075712110370514,-0.006073745796940267,-0.015009831567151233,0.0005585053606381855,0.0,0.0,0.0,0.0004886921905584122,0.0,0.0,0.0,0.00010471975511965978,-0.32361945,0.10787314999999999,9.914523149999999,0.0064,0.0,0.0,0.0,0.0063,0.0,0.0,0.0,0.0064
1728111967503393309,22497,1728111967503078669,/map,0.01910351905723444,-0.0030652915341779284,0.0035672624563895215,0.9998064483618855,0.00022689280275926284,0.0,0.0,0.0,0.00019198621771937625,0.0,0.0,0.0,0.00010471975511965978,-0.0004014257279586958,-0.001780235837034216,-0.003525565089028546,0.0005585053606381855,0.0,0.0,0.0,0.0004886921905584122,0.0,0.0,0.0,0.00010471975511965978,-0.30400615,0.18632634999999997,9.80665,0.0064,0.0,0.0,0.0,0.0063,0.0,0.0,0.0,0.0064
1728111967512950225,22498,1728111967512732707,/map,0.01919952676283974,-0.0030825665242521414,0.0035591664562762524,0.9998045850514204,0.00022689280275926284,0.0,0.0,0.0,0.00019198621771937625,0.0,0.0,0.0,0.00010471975511965978,0.0065100781099388496,0.0023387411976724015,-0.0004537856055185257,0.0005585053606381855,0.0,0.0,0.0,0.0004886921905584122,0.0,0.0,0.0,0.00010471975511965978,-0.38245935,0.20593965,9.77723005,0.0064,0.0,0.0,0.0,0.0063,0.0,0.0,0.0,0.0064
1728111967523566139,22499,1728111967523419324,/map,0.01918207687803069,-0.0030826286429559255,0.0035591126547989036,0.9998049199940984,0.00022689280275926284,0.0,0.0,0.0,0.00019198621771937625,0.0,0.0,0.0,0.00010471975511965978,-0.00757472895365539,0.0008552113334772215,0.0015533430342749533,0.0005585053606381855,0.0,0.0,0.0,0.0004886921905584122,0.0,0.0,0.0,0.00010471975511965978,-0.44129925,0.1372931,9.836069949999999,0.0064,0.0,0.0,0.0,0.0063,0.0,0.0,0.0,0.0064
1728111967533319549,22500,1728111967533092666,/map,0.019173405733075886,-0.0030823250633663034,0.0035765356437631674,0.9998050250811843,0.00022689280275926284,0.0,0.0,0.0,0.00019198621771937625,0.0,0.0,0.0,0.00010471975511965978,0.003909537524467298,0.011135200627723822,0.0030019663134302466,0.0005585053606381855,0.0,0.0,0.0,0.0004886921905584122,0.0,0.0,0.0,0.00010471975511965978,-0.50013915,0.17651969999999997,9.855683249999998,0.0064,0.0,0.0,0.0,0.0063,0.0,0.0,0.0,0.0064
1728111967543077334,22501,1728111967542753320,/map,0.01921707709032435,-0.003064048321112494,0.00361123486748975,0.9998041180844986,0.00022689280275926284,0.0,0.0,0.0,0.00019198621771937625,0.0,0.0,0.0,0.00010471975511965978,-0.006108652381980153,0.0036477381366681488,0.007906341511534314,0.0005585053606381855,0.0,0.0,0.0,0.0004886921905584122,0.0,0.0,0.0,0.00010471975511965978,-0.4216859499999999,0.08825984999999999,9.826263299999999,0.0064,0.0,0.0,0.0,0.0063,0.0,0.0,0.0,0.0064
1728111967552752927,22502,1728111967552487294,/map,0.019225851542930546,-0.0030547885372049386,0.003637268829177562,0.9998038833565843,0.00022689280275926284,0.0,0.0,0.0,0.00019198621771937625,0.0,0.0,0.0,0.00010471975511965978,0.0033161255787892262,-0.006335545184739416,0.005986479334340551,0.0005585053606381855,0.0,0.0,0.0,0.0004886921905584122,0.0,0.0,0.0,0.00010471975511965978,-0.44129925,-0.06864655,9.81645665,0.0064,0.0,0.0,0.0,0.0063,0.0,0.0,0.0,0.0064
1728111967563501297,22503,1728111967563207243,/map,0.019217264226530115,-0.003062874410958954,0.0036723094187884947,0.9998038956212979,0.00022689280275926284,0.0,0.0,0.0,0.00019198621771937625,0.0,0.0,0.0,0.00010471975511965978,-0.003159045946109736,0.006702064327658226,0.004363323129985824,0.0005585053606381855,0.0,0.0,0.0,0.0004886921905584122,0.0,0.0,0.0,0.00010471975511965978,-0.4216859499999999,-0.08825984999999999,9.757616749999999,0.0064,0.0,0.0,0.0,0.0063,0.0,0.0,0.0,0.0064
1728111967573195369,22504,1728111967572875985,/map,0.019208610158718636,-0.003044618446126632,0.003715572513099303,0.9998039578413299,0.00022689280275926284,0.0,0.0,0.0,0.00019198621771937625,0.0,0.0,0.0,0.00010471975511965978,0.002722713633111154,-0.00010471975511965978,0.009704030641088473,0.0005585053606381855,0.0,0.0,0.0,0.0004886921905584122,0.0,0.0,0.0,0.00010471975511965978,-0.4707192,-0.0784532,9.81645665,0.0064,0.0,0.0,0.0,0.0063,0.0,0.0,0.0,0.0064
1728111967582856005,22505,1728111967582618130,/map,0.01918259474037802,-0.0030437113244049987,0.003767842437913654,0.9998042644656819,0.00022689280275926284,0.0,0.0,0.0,0.00019198621771937625,0.0,0.0,0.0,0.00010471975511965978,-0.010611601852125523,-0.0016406094968746698,0.010716321607245184,0.0005585053606381855,0.0,0.0,0.0,0.0004886921905584122,0.0,0.0,0.0,0.00010471975511965978,-0.38245935,-0.0588399,9.855683249999998,0.0064,0.0,0.0,0.0,0.0063,0.0,0.0,0.0,0.0064
1728111967593642079,22506,1728111967593335736,/map,0.019147870853423846,-0.003069516398509317,0.0037944116978238275,0.9998047507142218,0.00022689280275926284,0.0,0.0,0.0,0.00019198621771937625,0.0,0.0,0.0,0.00010471975511965978,-0.0030368728984701333,-0.0037699111843077517,0.010663961729685353,0.0005585053606381855,0.0,0.0,0.0,0.0004886921905584122,0.0,0.0,0.0,0.00010471975511965978,-0.40207265,-0.14709974999999997,9.738003449999999,0.0064,0.0,0.0,0.0,0.0063,0.0,0.0,0.0,0.0064
1728111967603234294,22507,1728111967602999040,/map,0.01910439106363846,-0.0030866317139940083,0.0038207856294365087,0.9998054293430915,0.00022689280275926284,0.0,0.0,0.0,0.00019198621771937625,0.0,0.0,0.0,0.00010471975511965978,0.003665191429188092,-0.004310963252425994,0.006562437987498679,0.0005585053606381855,0.0,0.0,0.0,0.0004886921905584122,0.0,0.0,0.0,0.00010471975511965978,-0.32361945,-0.20593965,9.71839015,0.0064,0.0,0.0,0.0,0.0063,0.0,0.0,0.0,0.0064
1728111967612999484,22508,1728111967612639519,/map,0.01906955056150324,-0.003095323627547131,0.0038295690422911815,0.9998060339955813,0.00022689280275926284,0.0,0.0,0.0,0.00019198621771937625,0.0,0.0,0.0,0.00010471975511965978,-0.00710349005561692,-0.001117010721276371,0.0038571776469074684,0.0005585053606381855,0.0,0.0,0.0,0.0004886921905584122,0.0,0.0,0.0,0.00010471975511965978,-0.30400615,-0.24516625,9.826263299999999,0.0064,0.0,0.0,0.0,0.0063,0.0,0.0,0.0,0.0064
1728111967623624595,22509,1728111967623352152,/map,0.019043375694209403,-0.003095423884369449,0.003829488005595744,0.9998065328926192,0.00022689280275926284,0.0,0.0,0.0,0.00019198621771937625,0.0,0.0,0.0,0.00010471975511965978,-0.003892084231947355,-0.007033676885537149,-0.0004363323129985824,0.0005585053606381855,0.0,0.0,0.0,0.0004886921905584122,0.0,0.0,0.0,0.00010471975511965978,-0.35303939999999995,-0.32361945,9.826263299999999,0.0064,0.0,0.0,0.0,0.0063,0.0,0.0,0.0,0.0064
1728111967633340515,22510,1728111967633021137,/map,0.0190345591379997,-0.003078173483638058,0.003820404231626628,0.9998067887936816,0.00022689280275926284,0.0,0.0,0.0,0.00019198621771937625,0.0,0.0,0.0,0.00010471975511965978,-0.003735004599267865,0.006352998477259359,-0.0108035880698449,0.0005585053606381855,0.0,0.0,0.0,0.0004886921905584122,0.0,0.0,0.0,0.00010471975511965978,-0.35303939999999995,-0.21574629999999997,9.875296549999998,0.0064,0.0,0.0,0.0,0.0063,0.0,0.0,0.0,0.0064
1728111967642965332,22511,1728111967642627833,/map,0.019025699846879407,-0.003079036978529973,0.0037767525576103867,0.9998071206071397,0.00022689280275926284,0.0,0.0,0.0,0.00019198621771937625,0.0,0.0,0.0,0.00010471975511965978,-0.003612831551628262,-0.0016580627893946131,-0.014556045961632708,0.0005585053606381855,0.0,0.0,0.0,0.0004886921905584122,0.0,0.0,0.0,0.00010471975511965978,-0.4118793,-0.1569064,9.79684335,0.0064,0.0,0.0,0.0,0.0063,0.0,0.0,0.0,0.0064
1728111967653636397,22512,1728111967653340273,/map,0.01903425891150414,-0.0030711095835480816,0.0037329887117548066,0.9998071464381987,0.00022689280275926284,0.0,0.0,0.0,0.00019198621771937625,0.0,0.0,0.0,0.00010471975511965978,0.004904375198104067,0.0023387411976724015,-0.01722639971718403,0.0005585053606381855,0.0,0.0,0.0,0.0004886921905584122,0.0,0.0,0.0,0.00010471975511965978,-0.35303939999999995,-0.14709974999999997,9.71839015,0.0064,0.0,0.0,0.0,0.0063,0.0,0.0,0.0,0.0064
1728111967663412356,22513,1728111967662992122,/map,0.01903400926877613,-0.003054822375986261,0.003671582150106839,0.9998074284760652,0.00022689280275926284,0.0,0.0,0.0,0.00019198621771937625,0.0,0.0,0.0,0.00010471975511965978,-0.0038571776469074684,0.00445058959258554,-0.013962634015954637,0.0005585053606381855,0.0,0.0,0.0,0.0004886921905584122,0.0,0.0,0.0,0.00010471975511965978,-0.392266,-0.0196133,9.7674234,0.0064,0.0,0.0,0.0,0.0063,0.0,0.0,0.0,0.0064
1728111967672986022,22514,1728111967672653378,/map,0.019059989607046295,-0.003038107974191181,0.003627705041370109,0.9998071446295277,0.00022689280275926284,0.0,0.0,0.0,0.00019198621771937625,0.0,0.0,0.0,0.00010471975511965978,0.0033684854563490563,0.008255407361933179,-0.007278022980816354,0.0005585053606381855,0.0,0.0,0.0,0.0004886921905584122,0.0,0.0,0.0,0.00010471975511965978,-0.4118793,0.0196133,9.7870367,0.0064,0.0,0.0,0.0,0.0063,0.0,0.0,0.0,0.0064
1728111967683769974,22515,1728111967683370982,/map,0.019086058432062597,-0.0030386792310270225,0.003592884739717069,0.9998067713219919,0.00022689280275926284,0.0,0.0,0.0,0.00019198621771937625,0.0,0.0,0.0,0.00010471975511965978,-0.005777039824101231,-0.01202531854624093,-0.012182398178920419,0.0005585053606381855,0.0,0.0,0.0,0.0004886921905584122,0.0,0.0,0.0,0.00010471975511965978,-0.3334261,-0.00980665,9.826263299999999,0.0064,0.0,0.0,0.0,0.0063,0.0,0.0,0.0,0.0064
1728111967693273966,22516,1728111967693019565,/map,0.019112180269357126,-0.003038918739418938,0.0035755143790592797,0.9998063338643,0.00022689280275926284,0.0,0.0,0.0,0.00019198621771937625,0.0,0.0,0.0,0.00010471975511965978,-0.0031066860685499066,-0.0010297442586766543,0.0014660765716752368,0.0005585053606381855,0.0,0.0,0.0,0.0004886921905584122,0.0,0.0,0.0,0.00010471975511965978,-0.392266,0.04903325,9.826263299999999,0.0064,0.0,0.0,0.0,0.0063,0.0,0.0,0.0,0.0064
1728111967703045806,22517,1728111967702653257,/map,0.01915580860169575,-0.0030476548438151357,0.0035670889998315595,0.9998055024217637,0.00022689280275926284,0.0,0.0,0.0,0.00019198621771937625,0.0,0.0,0.0,0.00010471975511965978,0.003403392041388943,0.0054105206811824215,-0.0009773843811168245,0.0005585053606381855,0.0,0.0,0.0,0.0004886921905584122,0.0,0.0,0.0,0.00010471975511965978,-0.44129925,0.0980665,9.79684335,0.0064,0.0,0.0,0.0,0.0063,0.0,0.0,0.0,0.0064
1728111967712625957,22518,1728111967712317109,/map,0.01918203290421744,-0.003038334324851389,0.003593176415429199,0.9998049345854618,0.00022689280275926284,0.0,0.0,0.0,0.00019198621771937625,0.0,0.0,0.0,0.00010471975511965978,0.010297442586766544,-0.00471238898038469,0.004782202150464463,0.0005585053606381855,0.0,0.0,0.0,0.0004886921905584122,0.0,0.0,0.0,0.00010471975511965978,-0.37265269999999995,0.04903325,9.80665,0.0064,0.0,0.0,0.0,0.0063,0.0,0.0,0.0,0.0064
1728111967723395445,22519,1728111967723039991,/map,0.019182108328232896,-0.003028939797018683,0.0036279089868185804,0.9998048362156353,0.00022689280275926284,0.0,0.0,0.0,0.00019198621771937625,0.0,0.0,0.0,0.00010471975511965978,-0.0022165681500327986,0.0076445421237351634,0.008412486994612669,0.0005585053606381855,0.0,0.0,0.0,0.0004886921905584122,0.0,0.0,0.0,0.00010471975511965978,-0.4903325,0.04903325,9.845876599999999,0.0064,0.0,0.0,0.0,0.0063,0.0,0.0,0.0,0.0064
1728111967733031823,22520,1728111967732723272,/map,0.019208450716538907,-0.00304562420242868,0.003663222895213591,0.999804151017742,0.00022689280275926284,0.0,0.0,0.0,0.00019198621771937625,0.0,0.0,0.0,0.00010471975511965978,-0.003560471674068432,-0.00486946861306418,0.0033335788713091696,0.0005585053606381855,0.0,0.0,0.0,0.0004886921905584122,0.0,0.0,0.0,0.00010471975511965978,-0.46091255,-0.0588399,9.7870367,0.0064,0.0,0.0,0.0,0.0063,0.0,0.0,0.0,0.0064
1728111967742639141,22521,1728111967742375069,/map,0.019208614892458068,-0.00305351101220034,0.003707015005555955,0.9998039623967091,0.00022689280275926284,0.0,0.0,0.0,0.00019198621771937625,0.0,0.0,0.0,0.00010471975511965978,-0.003438298626428829,0.0009424777960769379,0.00932005820564972,0.0005585053606381855,0.0,0.0,0.0,0.0004886921905584122,0.0,0.0,0.0,0.00010471975511965978,-0.45110589999999995,-0.1569064,9.826263299999999,0.0064,0.0,0.0,0.0,0.0063,0.0,0.0,0.0,0.0064
